"Time (s)";"Linear Acceleration x (m/s^2)";"Linear Acceleration y (m/s^2)";"Linear Acceleration z (m/s^2)"
7.598954400E-2;2.200722694E-3;7.371902466E-4;2.545714378E-3
8.546251300E-2;7.059967518E-1;-3.183364868E-1;-7.929375172E-1
9.493542900E-2;7.112144828E-1;-2.384805679E-1;-2.728236914E-1
1.044083460E-1;8.510267735E-1;-9.406948090E-2;-1.703345776E-2
1.138812630E-1;9.217751622E-1;-2.813243866E-2;-2.070819139E-1
1.233541790E-1;1.111846685E0;-2.033863068E-1;-6.410923004E-1
1.328271480E-1;8.598999977E-1;-1.221828461E-1;-1.023375034E0
1.423000650E-1;2.490217388E-1;7.620048523E-2;-7.949061394E-1
1.517729810E-1;-2.915787697E-1;8.295726776E-2;-4.785270691E-1
1.612458980E-1;-6.875869036E-1;-3.536510468E-2;-4.855537415E-2
1.707188150E-1;-1.151245356E0;-9.176254272E-2;4.268584251E-1
1.801917840E-1;-1.330743313E0;1.243944168E-1;5.252007246E-1
1.896647000E-1;-1.011385202E0;1.928939819E-1;4.042521715E-1
1.991376170E-1;-3.089026213E-1;4.722690582E-2;6.111311913E-2
2.086105340E-1;4.901757240E-1;-2.454376221E-2;-2.827143669E-2
2.180834500E-1;9.675636292E-1;-3.621959686E-2;-5.582149029E-1
2.275564190E-1;1.189331532E0;-4.523944855E-2;-9.614641666E-1
2.370293360E-1;1.000336885E0;6.195831299E-2;-8.785622120E-1
2.465022520E-1;5.708700418E-2;1.228189468E-1;-3.485128880E-1
2.559751690E-1;-6.195921302E-1;2.353572845E-2;-2.137613297E-2
2.654480860E-1;-8.720346689E-1;-1.308298111E-1;4.465488195E-1
2.749210540E-1;-1.097944021E0;-1.550598145E-1;5.600681305E-1
2.843939710E-1;-9.384372234E-1;-1.278142929E-1;4.836348295E-1
2.938668880E-1;-2.856287956E-1;-2.801895142E-2;5.584549904E-2
3.033398040E-1;2.168546319E-1;1.025400162E-1;-2.868721485E-1
3.128127730E-1;3.941053152E-1;2.116203308E-3;-6.565916538E-1
3.222856900E-1;3.719125986E-1;-1.527347565E-1;-6.231880188E-1
3.317586060E-1;8.134150505E-2;-4.580879211E-2;-2.466146946E-1
3.412315230E-1;-2.769209146E-1;7.381343842E-2;2.683373690E-1
3.507044400E-1;-5.801581144E-1;4.590129852E-2;4.260717630E-1
3.601773560E-1;-5.113077164E-1;-6.913566589E-2;4.471256733E-1
3.696503250E-1;-4.354369640E-1;2.557754517E-3;1.997420788E-1
3.791232420E-1;-2.421424389E-1;7.193183899E-2;-2.528605461E-1
3.885961590E-1;-1.843249798E-2;6.928443909E-2;-3.959643841E-1
3.980690750E-1;4.884719849E-2;-8.477687836E-2;-2.139263153E-1
4.075419920E-1;-1.580888033E-1;-2.769966125E-1;-3.887367249E-2
4.170149610E-1;-1.968477964E-1;-3.360137939E-1;-5.644440651E-2
4.264878770E-1;-2.884691954E-1;-1.673574448E-1;1.247398853E-1
4.359607940E-1;-4.418302774E-1;-1.707839966E-2;1.027781963E-1
4.454337110E-1;-4.611234665E-1;-3.876972198E-2;2.725952864E-1
4.549066270E-1;-5.112885237E-1;-6.709861755E-2;3.309003115E-1
4.643795960E-1;-7.585207224E-1;-2.476692200E-2;3.648070097E-1
4.738525130E-1;-8.083254099E-1;-5.602741241E-2;2.640856504E-1
4.833254290E-1;-8.123487234E-1;7.265949249E-2;3.972239494E-1
4.927983460E-1;-8.382307291E-1;1.844053268E-1;4.076094627E-1
5.022712630E-1;-6.926735640E-1;1.485347748E-1;4.480675459E-1
5.117441790E-1;-3.387212753E-1;-3.179359436E-2;9.875822067E-1
5.212171480E-1;-3.042457104E-1;-2.271366119E-1;8.222775459E-1
5.306900650E-1;1.631548405E-1;-3.433704376E-1;2.512925863E-1
5.401629810E-1;6.240758896E-1;4.986572266E-2;-1.880741119E-1
5.496358980E-1;3.945003748E-1;4.797639847E-1;-4.716653824E-1
5.591088670E-1;1.253088713E-1;2.953386307E-1;-4.119970798E-1
5.685817840E-1;-1.423640251E-1;-1.324396133E-1;-2.157664299E-1
5.780547000E-1;-3.046290874E-1;-3.384532928E-1;-7.526612282E-2
5.875276170E-1;-2.793757915E-1;-2.234344482E-1;1.158744097E-1
5.970005340E-1;-5.872774124E-2;-1.010828018E-1;3.491711617E-2
6.064735020E-1;1.657154560E-1;-1.615619659E-2;7.723319530E-2
6.159464190E-1;2.970407009E-1;-5.022811890E-2;3.666275740E-1
6.254193360E-1;4.128897190E-2;-1.119079590E-1;5.160920620E-1
6.348922520E-1;-4.639863968E-3;-1.652069092E-1;3.746708632E-1
6.443651690E-1;1.957416534E-2;1.343154907E-2;3.490185738E-1
6.538381380E-1;-1.244333982E-1;2.056121826E-1;6.649351120E-2
6.633110540E-1;-9.676766396E-2;1.259937286E-1;-6.855452061E-2
6.727839710E-1;1.377701759E-2;-5.146598816E-2;-2.354511023E-1
6.822568880E-1;9.493100643E-2;-1.108627319E-1;-2.005629539E-1
6.917298040E-1;3.774046898E-2;5.438423157E-2;-1.203287840E-1
7.012027730E-1;-1.151299477E-2;9.660339355E-2;-2.292072773E-2
7.106756900E-1;-2.124834061E-2;5.110454559E-2;-3.347051144E-2
7.201486060E-1;-2.554726601E-2;4.407119751E-2;-8.653748035E-2
7.296215230E-1;-1.410317421E-2;9.352588654E-2;-1.882672310E-1
7.390944400E-1;5.745804310E-2;-1.106262207E-2;-3.027906418E-1
7.485673560E-1;1.228070259E-2;-1.138992310E-1;-2.457538843E-1
7.580403250E-1;-5.754709244E-3;-1.442918777E-1;-1.300072670E-2
7.675132420E-1;-1.120197773E-2;-7.045269012E-2;1.925723553E-1
7.769861590E-1;1.914024353E-1;9.437561035E-3;3.056651354E-1
7.864590750E-1;4.427684546E-1;6.700134277E-2;1.797425747E-1
7.959319920E-1;6.682564020E-1;3.658294678E-2;1.155607700E-1
8.054049610E-1;6.418262124E-1;-7.800769806E-2;-7.603764534E-3
8.148778770E-1;4.272359610E-1;-2.069435120E-1;-1.430058479E-2
8.243507940E-1;1.061896086E-1;-1.428422928E-1;9.031498432E-2
8.338237110E-1;-1.899898052E-1;9.699821472E-3;2.187523842E-1
8.432966270E-1;-3.110079765E-1;7.495594025E-2;2.525994778E-1
8.527695440E-1;-2.410300970E-1;2.610206604E-3;1.465058327E-1
8.622425130E-1;-6.317436695E-2;-8.725261688E-2;1.550703049E-1
8.717154290E-1;-2.227544785E-2;-1.685190201E-1;3.588424921E-1
8.811883460E-1;-1.463937759E-2;-1.353044510E-1;3.005229235E-1
8.906612630E-1;2.694021463E-1;-5.534267426E-2;1.468110085E-1
9.001341790E-1;4.614132643E-1;1.433277130E-1;-1.738590002E-1
9.096071480E-1;5.333845615E-1;2.325229645E-1;-4.020317793E-1
9.190800650E-1;4.239416122E-1;2.046957016E-1;-6.074243784E-1
9.285529810E-1;1.366997957E-1;9.710216522E-2;-5.461401939E-1
9.380258980E-1;-3.062605858E-1;1.466560364E-2;-3.076012135E-1
9.474988150E-1;-6.965942383E-1;-8.763599396E-2;2.502250671E-2
9.569717840E-1;-8.085629940E-1;-9.872341156E-2;3.630046844E-1
9.664447000E-1;-6.632347107E-1;-6.011486053E-2;4.355151653E-1
9.759176170E-1;-2.508395910E-1;-7.918357849E-3;3.178061247E-1
9.853905340E-1;2.258822918E-1;3.641891479E-2;1.146309376E-1
9.948634500E-1;6.306101084E-1;6.355953217E-2;-7.288610935E-2
1.004336367E0;7.727797627E-1;1.183195114E-1;-3.439691067E-1
1.013809336E0;6.099631190E-1;1.179113388E-1;-4.403944016E-1
1.023282252E0;1.929500103E-1;4.218578339E-2;-2.311621904E-1
1.032755169E0;-4.006799459E-1;3.361988068E-2;1.908528805E-2
1.042228086E0;-7.436870337E-1;6.522655487E-2;2.668336630E-1
1.051701002E0;-7.625175714E-1;7.507038116E-2;3.491941690E-1
1.061173971E0;-5.118834972E-1;-2.121639252E-2;2.311750650E-1
1.070646888E0;-1.253193617E-1;-1.510591507E-1;9.334278107E-2
1.080119804E0;3.099257946E-1;-1.749782562E-1;-2.826333046E-2
1.089592721E0;6.749612689E-1;-1.324243546E-1;-7.939231396E-2
1.099065638E0;9.503185749E-1;-6.674957275E-2;-1.951249838E-1
1.108538554E0;1.114713192E0;3.592205048E-2;-2.377804518E-1
1.118011523E0;1.099331617E0;3.607559204E-2;-2.673379183E-1
1.127484440E0;1.116825104E0;-5.989265442E-2;-2.466382980E-1
1.136957356E0;1.068315625E0;-1.490879059E-1;-2.709282637E-1
1.146430273E0;9.809771776E-1;-2.127618790E-1;-2.853946686E-1
1.155903190E0;8.622493744E-1;-2.231445312E-1;-2.361950874E-1
1.165376159E0;8.253314495E-1;-1.717557907E-1;-1.998014450E-1
1.174849075E0;8.647059798E-1;-1.136331558E-1;-2.111377716E-1
1.184321992E0;9.462409019E-1;-5.822849274E-2;-5.723512173E-2
1.193794909E0;8.994158506E-1;2.508544922E-2;-4.206192493E-2
1.203267825E0;1.060030222E0;-3.332424164E-2;-1.032912731E-2
1.212740742E0;1.232351065E0;-8.024597168E-2;2.361178398E-2
1.222213659E0;1.372258663E0;-2.121887207E-1;2.684080601E-2
1.231686627E0;1.621725321E0;-4.507761002E-1;1.030713320E-1
1.241159544E0;1.905212522E0;-5.254020691E-1;1.194140911E-1
1.250632461E0;2.323799610E0;-3.945484161E-1;2.557133436E-1
1.260105377E0;2.850320816E0;-5.496025085E-3;4.734093547E-1
1.269578294E0;3.305277824E0;6.106929779E-1;5.547278523E-1
1.279051263E0;4.015160561E0;6.291360855E-1;5.012204647E-1
1.288524179E0;4.170941353E0;6.916093826E-1;1.938230991E-1
1.297997096E0;3.606033325E0;1.018048286E0;-1.138329506E-3
1.307470013E0;2.792207241E0;1.306924820E0;-6.342864037E-2
1.316942929E0;2.129766941E0;1.284212112E0;-7.308757305E-1
1.326415846E0;1.390205383E0;1.566557884E0;-9.559699297E-1
1.335888763E0;1.721670628E-1;2.393199921E0;-3.232222795E-1
1.345361731E0;-3.585803509E-1;2.674304008E0;2.941203117E-2
1.354834648E0;5.525350571E-2;2.604429245E0;1.062591076E-1
1.364307565E0;4.585340023E-1;2.967034340E0;-1.863031387E-1
1.373780481E0;8.881347179E-1;3.760288239E0;-1.437608004E-1
1.383253398E0;1.303210020E0;4.249269485E0;-5.319850445E-1
1.392726315E0;1.841189742E0;4.049482346E0;-9.263240099E-1
1.402199284E0;1.963757396E0;3.368428230E0;-1.017008781E0
1.411672200E0;1.692028761E0;2.426711082E0;-8.114916086E-1
1.421145117E0;1.305835962E0;1.522911072E0;-6.555882692E-1
1.430618034E0;1.077535152E0;9.305057526E-1;-6.286802292E-1
1.440090950E0;1.043824196E0;9.272251129E-1;-6.644899845E-1
1.449563867E0;1.335356712E0;1.336316109E0;-4.624149799E-1
1.459036836E0;1.870297909E0;1.502445221E0;-3.941392899E-2
1.468509752E0;2.246966600E0;1.051835060E0;5.149149895E-2
1.477982669E0;2.142829418E0;2.176694870E-1;-2.451241016E-2
1.487455586E0;1.784324884E0;-5.337305069E-1;2.744803429E-1
1.496928502E0;1.295428991E0;-9.898943901E-1;7.808154225E-1
1.506401419E0;7.890083790E-1;-1.111247063E0;1.118280530E0
1.515874336E0;2.927536964E-1;-1.142765045E0;1.193867445E0
1.525347304E0;-2.306866646E-2;-9.721355438E-1;9.347592592E-1
1.534820221E0;2.134180069E-2;-6.152505875E-1;8.390069008E-1
1.544293138E0;2.790946960E-1;-2.950124741E-1;9.060711861E-1
1.553766054E0;3.276956081E-1;-6.019210815E-2;8.832255006E-1
1.563238971E0;1.366615295E-1;2.323913574E-2;9.401760697E-1
1.572711888E0;-1.799809933E-1;-1.031274796E-1;1.120785236E0
1.582184804E0;-4.077267647E-1;-4.039926529E-1;1.281007886E0
1.591657773E0;-5.592455864E-1;-7.489919662E-1;1.315887690E0
1.601130690E0;-7.397708893E-1;-8.705358505E-1;1.170774937E0
1.610603606E0;-8.130970001E-1;-7.500419617E-1;9.860218763E-1
1.620076523E0;-8.029844761E-1;-3.738183975E-1;7.767733335E-1
1.629549440E0;-6.776046753E-1;-8.513259888E-2;6.243211627E-1
1.639022356E0;-5.260274410E-1;-6.584358215E-2;4.589974880E-1
1.648495273E0;-3.156955242E-1;-2.803783417E-1;3.997592926E-1
1.657968242E0;-3.563477993E-1;-5.650367737E-1;2.855355740E-1
1.667441159E0;-4.839398861E-1;-7.762537003E-1;4.024542570E-1
1.676914075E0;-9.148838520E-1;-8.526496887E-1;5.690759420E-1
1.686386992E0;-1.421016455E0;-8.402185440E-1;7.551901340E-1
1.695859909E0;-1.793799043E0;-7.297830582E-1;8.150641322E-1
1.705332825E0;-1.889317989E0;-4.812011719E-1;7.355435491E-1
1.714805742E0;-1.825923562E0;-2.974548340E-1;7.156615257E-1
1.724278711E0;-1.899725914E0;-9.491062164E-2;7.837573290E-1
1.733751627E0;-1.913513184E0;-1.642074585E-1;8.254473209E-1
1.743224544E0;-2.058126450E0;-4.897174835E-1;7.468845844E-1
1.752697461E0;-2.272084236E0;-6.750888824E-1;6.548285484E-1
1.762170377E0;-2.287454605E0;-8.860244751E-1;5.675931573E-1
1.771643294E0;-2.143717051E0;-1.015515327E0;5.002459288E-1
1.781116211E0;-1.691344976E0;-1.221679688E0;4.190621376E-1
1.790589179E0;-1.209381580E0;-1.531350136E0;1.985228062E-1
1.800062096E0;-1.180385590E0;-1.790246964E0;-1.738780737E-1
1.809535013E0;-1.326571226E0;-2.059655190E0;-6.502122879E-1
1.819007929E0;-1.839116096E0;-1.727741718E0;-5.727903843E-1
1.828480846E0;-2.199977875E0;-1.397587776E0;-2.563030720E-1
1.837953763E0;-2.663385630E0;-1.095471382E0;-1.185150146E-1
1.847426679E0;-2.950592995E0;-8.960075378E-1;-1.600146294E-2
1.856899648E0;-3.030535460E0;-6.668672562E-1;-5.232071877E-2
1.866372565E0;-2.511832952E0;-4.321689606E-1;-1.869915724E-1
1.875845481E0;-1.864656210E0;-3.795938492E-1;-1.861135960E-1
1.885318398E0;-1.458339572E0;-4.443864822E-1;-2.449510098E-1
1.894791315E0;-1.135439277E0;-6.139125824E-1;-1.386096478E-1
1.904264231E0;-8.031581640E-1;-1.041129112E0;-3.919078112E-1
1.913737148E0;-4.045879841E-1;-1.554699421E0;-8.066010475E-1
1.923210117E0;-4.832797050E-1;-1.822548389E0;-1.181292534E0
1.932683034E0;-8.440506458E-1;-1.839823723E0;-1.883918047E0
1.942155950E0;-1.253205895E0;-1.661211967E0;-2.374146938E0
1.951628867E0;-2.045423985E0;-1.558814526E0;-2.573279858E0
1.961101784E0;-2.158067226E0;-7.965021133E-1;-1.182113528E0
1.970574700E0;-7.054634094E-1;3.920515060E0;5.465217113E0
1.980047617E0;3.138864040E0;1.181378078E1;1.124192429E1
1.989520534E0;4.051242352E0;1.600605774E1;5.746934891E0
1.998993502E0;1.786810756E0;8.589930534E0;-4.345180035E0
2.008466419E0;4.932652473E0;-4.195929527E0;-5.783306599E0
2.017939336E0;2.545514345E0;-9.232923508E0;-2.105541229E0
2.027412252E0;-5.074557304E0;-6.516291618E0;-1.750718594E0
2.036885169E0;-9.556109428E0;-4.000772953E0;-1.921800256E0
2.046358086E0;-6.428373814E0;-3.937222481E0;2.255477905E-1
2.055831002E0;-2.136108398E0;-2.824838161E0;-1.477392673E0
2.065303919E0;-2.535688877E0;1.210594177E0;-3.501725197E0
2.074776888E0;-8.164284706E0;6.163323402E0;-3.240795135E0
2.084249804E0;-1.272112179E1;6.277618408E0;1.775335073E-1
2.093722721E0;-1.098819447E1;1.766986847E0;5.281745434E0
2.103195638E0;-6.546247959E0;-1.618322849E0;4.777656555E0
2.112668554E0;-2.750461340E0;-1.410038948E0;4.275244474E-1
2.122141471E0;-3.728471994E-1;3.085441589E-1;-1.644818068E0
2.131614388E0;-1.341787875E-1;1.423211098E0;-2.384094715E0
2.141087304E0;-9.083093405E-1;1.309009552E0;-2.530910492E0
2.150560273E0;-1.397567034E0;1.009464264E-1;-1.344739437E0
2.160033190E0;-1.936727047E0;-5.621786118E-1;-8.188128471E-2
2.169506106E0;-2.679745197E0;-4.418563843E-2;5.396538973E-1
2.178979023E0;-3.163012505E0;7.499465942E-1;6.216155291E-1
2.188451940E0;-2.966375351E0;8.102626801E-1;3.354576826E-1
2.197924856E0;-2.389071941E0;4.528102875E-1;1.104731560E-1
2.207397773E0;-1.770963073E0;1.616153717E-1;1.302525997E-1
2.216870690E0;-1.035829544E0;1.126985550E-1;2.483057976E-2
2.226343606E0;-1.083103418E-1;1.902694702E-1;-1.002695560E-1
2.235816575E0;8.115288019E-1;1.053819656E-1;-6.991398335E-1
2.245289492E0;1.704378843E0;-1.406250000E-1;-9.884316921E-1
2.254762409E0;2.002905607E0;-3.754682541E-1;-8.120794296E-1
2.264235325E0;2.110793591E0;-4.466695786E-1;-5.575482845E-1
2.273708242E0;2.462042809E0;-4.712123871E-1;-3.828155994E-1
2.283181159E0;2.771614552E0;-2.775430679E-1;-6.877739429E-1
2.292654075E0;2.866569996E0;1.594543457E-2;-1.032326460E0
2.302126992E0;2.492904663E0;-2.753734589E-2;-1.336758137E0
2.311599909E0;1.933022738E0;-3.533706665E-1;-8.570222855E-1
2.321072877E0;1.173043251E0;-5.924873352E-1;1.981360912E-1
2.330545794E0;5.429337025E-1;-3.495550156E-1;9.240275621E-1
2.340018711E0;5.058971643E-1;-6.041717529E-2;1.100559711E0
2.349491627E0;1.146749973E0;-1.090202332E-1;6.612344980E-1
2.358964544E0;1.545284867E0;-5.321502686E-4;-9.812355042E-2
2.368437461E0;1.633107781E0;-3.155040741E-2;-7.616543770E-2
2.377910377E0;1.088656783E0;-2.899341583E-1;1.387763023E-2
2.387383294E0;8.834621906E-1;-2.987899780E-1;6.323336363E-1
2.396856263E0;1.312193751E0;7.858276367E-4;-2.951080799E-1
2.406329179E0;1.277629375E0;6.134300232E-1;-1.740272045E-1
2.415802096E0;1.671462297E0;5.599603653E-1;6.940590143E-1
2.425275013E0;1.465754271E0;-1.198463440E-1;3.563692570E-1
2.434747929E0;1.072141528E0;-1.237955093E-1;-3.186087608E-1
2.444220846E0;1.006206870E0;1.205069542E0;-6.299540997E-1
2.453693763E0;5.526466370E-1;2.794508934E0;-6.559703350E-1
2.463166679E0;4.745028019E-1;3.516315460E0;-5.899748802E-1
2.472639596E0;7.076408863E-1;3.589818001E0;-6.902527809E-2
2.482112565E0;9.832162857E-1;2.892788887E0;8.605291843E-1
2.491585481E0;2.258291245E0;2.211128235E0;5.738935471E-1
2.501058398E0;4.762242794E0;2.097117424E0;-6.074404716E-2
2.510531315E0;6.766562462E0;2.331141472E0;-7.762742043E-1
2.520004231E0;8.045774460E0;2.702589035E0;-1.485771179E0
2.529477148E0;8.131952286E0;3.313892365E0;-1.880124569E0
2.538950065E0;7.410346031E0;3.950974464E0;-1.232210636E0
2.548422981E0;6.515451431E0;4.245362282E0;-2.088050842E-1
2.557895950E0;5.827293873E0;4.257971764E0;5.084059238E-1
2.567368867E0;5.758829117E0;4.521939754E0;9.754871130E-1
2.576841784E0;6.443559647E0;5.946693897E0;-2.355184555E-1
2.586314700E0;8.355734825E0;8.532484055E0;1.491227269E0
2.595787617E0;8.567832947E0;1.136352539E1;3.866228342E0
2.605260534E0;7.603296280E0;1.244387341E1;2.993993521E0
2.614733450E0;7.308102131E0;1.212406445E1;1.348547459E0
2.624206367E0;8.476179123E0;1.252168465E1;1.581368685E0
2.633679284E0;9.773747444E0;1.305402279E1;6.301074028E-1
2.643152200E0;1.068289757E1;1.149362755E1;-4.251493931E0
2.652625169E0;1.188813400E1;8.170121193E0;-8.511724472E0
2.662098086E0;1.272805405E1;4.260921955E0;-9.798388481E0
2.671571002E0;1.163397789E1;4.295530319E-1;-1.006387043E1
2.681043919E0;7.815842152E0;-1.863333702E0;-9.836730003E0
2.690516836E0;1.751227379E-1;-7.043156624E-1;-1.158847523E1
2.699989752E0;-6.390221596E0;2.636778831E0;-7.899555206E0
2.709462669E0;-6.863161564E0;5.300759792E0;7.473540306E-1
2.718935586E0;-7.249284744E0;6.347203732E0;4.720814705E0
2.728408502E0;-8.764616013E0;5.672645569E0;5.266520500E0
2.737881471E0;-9.016068459E0;3.673800468E0;4.414349556E0
2.747354388E0;-7.194933414E0;8.665347099E-1;2.951247454E0
2.756827304E0;-4.704563618E0;-1.309806347E0;1.586725831E0
2.766300221E0;-2.922375679E0;-2.210712910E0;4.163980484E-1
2.775773138E0;-1.737733841E0;-1.902380943E0;-6.091194153E-1
2.785246054E0;-1.278994083E0;-8.431701660E-1;-5.789122581E-1
2.794718971E0;-1.387385368E0;-4.510965347E-1;-4.528505802E-1
2.804191888E0;-1.370971203E0;-1.342459202E0;-3.281242847E-1
2.813664804E0;-7.618036270E-1;-2.951723576E0;-4.844086170E-1
2.823137773E0;9.092350006E-1;-4.770904541E0;-5.297311544E-1
2.832610690E0;2.559657097E0;-6.243515015E0;-3.823450804E-1
2.842083606E0;3.451690435E0;-7.097690582E0;-7.345004082E-1
2.851556523E0;3.185186863E0;-7.127220631E0;-1.019991398E0
2.861029440E0;1.904265881E0;-6.395971775E0;-1.123051286E0
2.870502356E0;2.995491028E-1;-5.496929169E0;-9.828841686E-1
2.879975273E0;-1.387507439E0;-4.746221066E0;-5.852837563E-1
2.889448190E0;-2.930384636E0;-4.320373535E0;2.746999264E-2
2.898921106E0;-4.401049137E0;-4.007249355E0;9.380828142E-1
2.908394075E0;-6.145113945E0;-3.581733227E0;1.364647388E0
2.917866992E0;-7.808095932E0;-3.017101765E0;1.435737371E0
2.927339909E0;-8.756883621E0;-2.587052822E0;1.263069630E0
2.936812825E0;-8.870777130E0;-2.639147282E0;1.026270986E0
2.946285742E0;-8.775554657E0;-3.120566845E0;4.042468071E-1
2.955758659E0;-9.080803871E0;-3.220252991E0;-7.198401690E-1
2.965231575E0;-9.449114799E0;-2.636580944E0;-1.218545914E0
2.974704492E0;-9.328191757E0;-1.583781242E0;-9.136061668E-1
2.984177409E0;-8.255392075E0;-9.253540039E-1;-7.343707085E-1
2.993650325E0;-6.399003029E0;-8.995075226E-1;-1.021931052E0
3.003123294E0;-4.311632633E0;-1.066915512E0;-1.275951028E0
3.012596211E0;-2.070482731E0;-1.103887558E0;-2.432003021E0
3.022069127E0;3.788692951E-1;-1.093441486E0;-4.351569176E0
3.031542044E0;2.236351252E0;-3.828468323E-1;-5.070270061E0
3.041014961E0;2.122503757E0;9.511041641E-1;-4.419682503E0
3.050487877E0;-1.773737788E0;2.239443779E0;-6.628577232E0
3.059960794E0;-3.601286411E0;2.088720322E0;-6.953917503E0
3.069433711E0;-4.353099346E0;1.704423904E0;-2.691060781E0
3.078906627E0;-5.490292549E0;4.184608459E-1;-8.154975176E-1
3.088379544E0;-7.167592049E0;-1.006909847E0;-2.700967789E-1
3.097852513E0;-7.191499710E0;-1.893512726E0;7.713593245E-1
3.107325429E0;-7.056949615E0;-1.861505985E0;1.239186525E-1
3.116798346E0;-6.274256706E0;-1.511970520E0;-1.155953765E0
3.126271263E0;-6.335358620E0;-8.237628937E-1;-2.090432644E0
3.135744179E0;-7.586974144E0;2.283496857E-1;-3.599127293E0
3.145217096E0;-4.982905388E0;4.329297066E0;1.660024166E0
3.154690013E0;5.595834255E-1;1.214215279E1;1.267367268E1
3.164162929E0;-1.298321128E0;1.538500118E1;5.182847023E0
3.173635846E0;-1.720705271E0;7.514604568E0;-3.523107529E0
3.183108815E0;1.782671094E0;-4.196799278E0;-4.194777012E0
3.192581731E0;3.466721773E-1;-9.286890030E0;-3.937105656E0
3.202054648E0;-4.276197433E0;-8.931359291E0;-4.813826561E0
3.211527565E0;-8.327237129E0;-6.446244240E0;-8.418471336E0
3.221000481E0;-9.226931572E0;-3.255362511E0;-5.605306149E0
3.230473398E0;-1.004008293E1;6.398401260E-1;1.798608184E0
3.239946315E0;-1.353106880E1;4.842400551E0;5.777557373E0
3.249419231E0;-1.816760254E1;6.251771927E0;4.658481598E0
3.258892148E0;-1.768236160E1;2.800899506E0;2.573697329E0
3.268365065E0;-1.238032055E1;-4.093141556E-1;4.488219023E-1
3.277838034E0;-7.165486813E0;-1.036150932E0;-9.120509624E-1
3.287310950E0;-2.947189569E0;-1.345615387E-1;-1.733490467E0
3.296783867E0;5.271089673E-1;8.632478714E-1;-2.650198698E0
3.306256784E0;2.364937782E0;1.461461067E0;-4.517754078E0
3.315729700E0;1.823344111E0;1.510050774E0;-4.708182812E0
3.325202617E0;3.694195747E-1;7.268867493E-1;-3.313934803E0
3.334675534E0;-9.025467038E-1;-2.039508820E-1;-1.377532959E0
3.344148450E0;-2.446486235E0;-3.478736877E-1;3.532032967E-1
3.353621367E0;-3.719264984E0;1.343898773E-1;1.147661209E0
3.363094336E0;-3.750534534E0;7.512607574E-1;1.385950089E0
3.372567252E0;-3.426132679E0;1.010340691E0;1.123473883E0
3.382040169E0;-2.566260099E0;7.335557938E-1;5.157709122E-3
3.391513086E0;-8.223329782E-1;3.402881622E-1;-1.165111780E0
3.400986002E0;1.268372416E0;-1.384067535E-2;-2.211037636E0
3.410458919E0;2.781472445E0;-3.574056625E-1;-2.616123199E0
3.419931836E0;3.317038536E0;-4.349136353E-1;-2.367580414E0
3.429404752E0;3.391295433E0;-5.327816010E-1;-1.804247379E0
3.438877669E0;3.071626902E0;-6.169090271E-1;-7.551469803E-1
3.448350586E0;2.147266150E0;-5.060100555E-1;-1.885025501E-1
3.457823502E0;1.518275499E0;-5.438156128E-1;3.106472492E-1
3.467296471E0;1.026340485E0;-3.286848068E-1;1.053432345E0
3.476769388E0;4.632010460E-1;-5.042457581E-2;1.116957784E0
3.486242304E0;7.284622192E-1;-5.957984924E-2;7.364890575E-1
3.495715221E0;1.029906154E0;1.311521530E-1;-5.944275856E-2
3.505188138E0;7.159175873E-1;4.296836853E-1;-4.404788017E-1
3.514661054E0;3.187420368E-1;1.225490570E-1;4.685499668E-1
3.524133971E0;-1.760911942E-1;-4.660892487E-1;1.163945198E0
3.533606888E0;-5.515713692E-1;-3.881254196E-1;1.100567579E0
3.543079804E0;-4.064362049E-1;4.025678635E-1;1.153887510E0
3.552552721E0;-1.655514240E-1;1.455143929E0;1.817675233E0
3.562025690E0;2.782402039E-1;1.928325653E0;1.554318666E0
3.571498606E0;1.332515359E0;1.639012337E0;5.501875877E-1
3.580971523E0;1.892343521E0;1.883845329E0;2.977833748E-1
3.590444440E0;2.603297710E0;2.666440964E0;-4.444122314E-1
3.599917356E0;4.491082191E0;3.127789497E0;-9.903945923E-1
3.609390273E0;6.031049728E0;3.183982849E0;-1.156968594E0
3.618863190E0;7.534880161E0;2.457291603E0;-1.541637182E0
3.628336106E0;8.305341721E0;1.963007927E0;-1.846503019E0
3.637809023E0;8.066070557E0;1.930418968E0;-1.883661509E0
3.647281940E0;6.875025749E0;2.334306717E0;-1.599612951E0
3.656754909E0;5.476033688E0;2.932734489E0;-1.043774366E0
3.666227825E0;4.741573334E0;3.654353142E0;-3.921508789E-2
3.675700742E0;4.422212124E0;4.236428261E0;7.094340324E-1
3.685173659E0;4.565459728E0;4.808499813E0;1.331758022E0
3.694646575E0;5.107981682E0;6.096832275E0;4.051446915E-2
3.704119492E0;7.322793961E0;8.448035240E0;2.320006371E0
3.713592409E0;8.530046463E0;1.168111038E1;7.605165005E0
3.723065325E0;7.745311737E0;1.351885414E1;7.652678490E0
3.732538242E0;8.353246689E0;1.344593811E1;5.125321388E0
3.742011211E0;1.099208450E1;1.368789196E1;4.355547428E0
3.751484127E0;1.333338833E1;1.508379459E1;1.516878843E0
3.760957044E0;1.477661705E1;1.402370071E1;-7.016622543E0
3.770429961E0;1.664000702E1;9.377700806E0;-1.243623543E1
3.779902877E0;1.780899048E1;4.011762619E0;-1.261906528E1
3.789375794E0;1.478425312E1;-1.767668724E-1;-1.189843941E1
3.798848711E0;8.630264282E0;-1.338028908E0;-1.196807861E1
3.808321627E0;-2.291603088E-1;1.347667694E0;-1.380296803E1
3.817794596E0;-7.420238018E0;5.321681976E0;-9.230459213E0
3.827267513E0;-8.386837006E0;7.494973660E0;5.456924438E-2
3.836740429E0;-9.565063477E0;7.753387451E0;5.163974285E0
3.846213346E0;-1.122676468E1;6.757679462E0;6.129527569E0
3.855686263E0;-9.638261795E0;3.913230896E0;4.686315536E0
3.865159179E0;-6.178755760E0;9.292020798E-1;3.151504755E0
3.874632096E0;-3.674088478E0;-3.819189072E-1;1.774692774E0
3.884105013E0;-2.679174900E0;-3.969106674E-1;2.163794041E-1
3.893577929E0;-2.429760933E0;-2.380814552E-1;-9.074025154E-1
3.903050898E0;-2.702974796E0;-4.758453369E-1;-1.962010860E0
3.912523815E0;-2.795404434E0;-1.411393166E0;-2.534991741E0
3.921996731E0;-2.237318993E0;-2.936444044E0;-2.142090321E0
3.931469648E0;-1.209963322E0;-4.617019176E0;-1.073239446E0
3.940942565E0;-1.146945953E-1;-5.954027176E0;-1.207258701E-1
3.950415481E0;1.087725163E0;-6.748910904E0;2.779698372E-2
3.959888398E0;1.903678894E0;-6.900135040E0;-4.720206261E-1
3.969361315E0;2.406802416E0;-6.940203190E0;-1.450456500E0
3.978834231E0;2.614951611E0;-7.020932198E0;-2.268919945E0
3.988307200E0;2.466716051E0;-7.145420074E0;-2.322796583E0
3.997780117E0;1.451347828E0;-6.981136799E0;-1.916453958E0
4.007253034E0;-5.389387608E-1;-6.425785065E0;-1.795184851E0
4.016725950E0;-3.405952930E0;-5.377519608E0;-1.130606771E0
4.026198867E0;-6.652944565E0;-4.213175774E0;4.320693016E-1
4.035671784E0;-9.322896957E0;-3.326762199E0;1.834252715E0
4.045144700E0;-1.045672512E1;-2.509436131E0;2.962420464E0
4.054617617E0;-1.032641697E1;-2.009680748E0;2.758117676E0
4.064090534E0;-9.462620735E0;-2.511499882E0;1.463074207E0
4.073563502E0;-8.441544533E0;-3.456636429E0;2.195225954E-1
4.083036419E0;-7.031176567E0;-4.146394730E0;-3.049901724E-1
4.092509336E0;-5.511648655E0;-4.034166813E0;-7.208287716E-1
4.101982252E0;-4.453623772E0;-2.643186569E0;-1.585078716E0
4.111455169E0;-4.334636688E0;-1.522064209E-2;-2.572197914E0
4.120928086E0;-4.799462795E0;2.875501633E0;-3.176429033E0
4.130401002E0;-4.049582481E0;3.919138908E0;-4.066310883E0
4.139873919E0;-1.706207991E0;2.935161591E0;-3.987256050E0
4.149346888E0;-2.791104317E-1;1.747025490E0;-1.909110308E0
4.158819804E0;-3.685561180E0;1.885989189E0;-4.758303165E0
4.168292721E0;-6.722909927E0;2.480293274E0;-4.611655712E0
4.177765638E0;-7.771872044E0;2.612126350E0;7.824772000E-1
4.187238554E0;-5.207103729E0;-5.288009644E-1;4.567458630E0
4.196711471E0;-3.454589605E0;-3.763484955E0;2.892155170E0
4.206184388E0;-3.159528494E0;-4.813300133E0;-1.207444310E0
4.215657304E0;-3.432803869E0;-3.279681206E0;-4.546415806E0
4.225130221E0;-3.496248007E0;-1.136037827E0;-5.402956486E0
4.234603190E0;-3.924423456E0;-2.633657455E-1;-3.992204666E0
4.244076106E0;-4.728911400E0;-8.655977249E-1;-2.370190144E0
4.253549023E0;-5.874435425E0;-1.618159771E0;-1.609315276E0
4.263021940E0;-4.591647148E0;3.271928787E0;3.472673416E0
4.272494856E0;1.324514389E0;1.659974670E1;1.453306484E1
4.281967773E0;3.436743498E0;2.322418594E1;4.908728600E0
4.291440690E0;-1.842255592E0;1.193368053E1;-6.138205528E0
4.300913606E0;8.846373558E-1;-7.818783283E0;-9.026917458E0
4.310386523E0;-3.211200237E-1;-1.517526627E1;-7.097641945E0
4.319859492E0;-9.674854279E0;-9.401551247E0;-4.439516068E0
4.329332409E0;-1.721774292E1;-2.401361465E0;-4.215001106E0
4.338805325E0;-1.637883186E1;3.735637665E-2;-1.257443190E0
4.348278242E0;-1.214667606E1;3.813047409E-1;4.015981197E0
4.357751159E0;-1.017776966E1;1.300090790E0;6.929527760E0
4.367224075E0;-1.460558319E1;3.124681473E0;3.954430103E0
4.376696992E0;-1.838563538E1;3.725131035E0;1.334812164E0
4.386169909E0;-1.376718807E1;1.779248238E0;1.132342577E0
4.395642877E0;-6.873763561E0;1.855087280E-1;-1.267473698E-1
4.405115794E0;-7.177327871E-1;-1.316604614E-1;-1.958213329E0
4.414588711E0;3.746862888E0;2.346620560E-1;-3.994795084E0
4.424061627E0;5.098752022E0;7.939052582E-1;-5.647761345E0
4.433534544E0;4.213962555E0;8.649368286E-1;-5.605949402E0
4.443007461E0;2.152843475E0;4.408864975E-1;-4.559350967E0
4.452480377E0;2.705029249E-1;-2.414093018E-1;-3.251006365E0
4.461953294E0;-1.187955379E0;-8.016395569E-1;-1.874512434E0
4.471426263E0;-2.576450348E0;-4.446105957E-1;-1.562352180E-1
4.480899179E0;-3.681102037E0;4.390487671E-1;1.023808479E0
4.490372096E0;-3.688330650E0;8.993949890E-1;1.652156115E0
4.499845013E0;-2.785834789E0;6.964855194E-1;1.099586964E0
4.509317929E0;-1.606853962E0;4.922866821E-1;6.037089825E-1
4.518790846E0;-2.067610025E-1;2.563238144E-1;3.030893803E-1
4.528263763E0;1.030436516E0;8.129882812E-2;-3.640143871E-1
4.537736679E0;1.833761692E0;5.779933929E-2;-7.103481293E-1
4.547209648E0;2.260756254E0;-9.978294373E-3;-2.964992523E-1
4.556682565E0;1.988400340E0;5.478000641E-2;7.283711433E-2
4.566155481E0;1.623715878E0;3.233909607E-2;4.817402363E-1
4.575628398E0;1.377490282E0;-1.528768539E-1;8.730843067E-1
4.585101315E0;1.043113947E0;-3.139324188E-1;7.029755116E-1
4.594574231E0;7.470296621E-1;-2.577743530E-1;6.337337494E-1
4.604047148E0;5.839850903E-1;-8.074760437E-2;5.030336380E-1
4.613520065E0;9.207113981E-1;-7.639789581E-2;4.223234653E-1
4.622992981E0;1.624081969E0;-2.250614166E-1;6.376843452E-1
4.632465950E0;1.436856270E0;-1.401052475E-1;2.374765873E-1
4.641938867E0;1.759116650E0;-1.892299652E-1;3.937959671E-2
4.651411784E0;2.337821722E0;-2.106695175E-1;-1.597833633E-2
4.660884700E0;1.941204429E0;4.493761063E-1;3.130891323E-1
4.670357617E0;2.045018673E0;6.882839203E-1;7.509016991E-1
4.679830534E0;1.620387673E0;8.145484924E-1;8.846077919E-1
4.689303450E0;1.166016221E0;1.151805878E0;-2.577042580E-1
4.698776419E0;1.868339419E0;1.670153618E0;-2.778220177E-2
4.708249336E0;2.344291687E0;2.571097374E0;-3.834686279E-1
4.717722252E0;4.016710281E0;2.930068016E0;-1.017043829E0
4.727195169E0;5.768195152E0;2.918285370E0;-1.495362282E0
4.736668086E0;6.521817684E0;2.867080688E0;-1.247396708E0
4.746141002E0;6.701848984E0;3.008622169E0;-5.688970089E-1
4.755613919E0;6.709320068E0;3.093510628E0;-1.385707855E-1
4.765086836E0;6.675456524E0;3.318855286E0;-1.941902637E-1
4.774559804E0;7.133770943E0;3.605580330E0;-2.816162109E-1
4.784032721E0;7.668854713E0;3.999208927E0;5.931968689E-1
4.793505638E0;7.964113712E0;4.550272465E0;1.676148176E0
4.802978554E0;8.206542015E0;5.155238628E0;2.091762066E0
4.812451471E0;8.211926460E0;6.179832458E0;-1.663804054E-1
4.821924388E0;8.609474182E0;8.386665344E0;9.575366974E-3
4.831397304E0;7.187172890E0;1.055539513E1;1.938960314E0
4.840870221E0;5.262968063E0;1.108078480E1;3.077779770E0
4.850343190E0;4.110044479E0;1.055122948E1;2.858938217E0
4.859816106E0;3.744659424E0;1.028869057E1;1.734043717E0
4.869289023E0;4.548108101E0;1.026355362E1;9.785140753E-1
4.878761940E0;6.688657761E0;9.185779572E0;-1.325770855E0
4.888234856E0;8.912594795E0;6.542998314E0;-5.598426819E0
4.897707773E0;9.237711906E0;3.969504833E0;-8.975020409E0
4.907180690E0;7.813528061E0;1.897671700E0;-9.863771439E0
4.916653659E0;4.769291401E0;1.181145191E0;-1.027623081E1
4.926126575E0;2.783374786E-1;3.134099007E0;-9.211036682E0
4.935599492E0;-2.350821972E0;6.219949245E0;-2.692493200E0
4.945072409E0;-3.668736458E0;7.902276039E0;2.774226427E0
4.954545325E0;-5.551867962E0;7.763320446E0;4.228227139E0
4.964018242E0;-6.490875244E0;6.075445652E0;3.387447119E0
4.973491159E0;-5.304809093E0;3.416605949E0;2.054254055E0
4.982964127E0;-2.975446701E0;1.101788521E0;1.654201031E0
4.992437044E0;-1.116096020E0;3.415474892E-1;1.421999693E0
5.001909961E0;-1.932601929E-1;8.598213196E-1;5.567941666E-1
5.011382877E0;-1.770625114E-1;1.804411411E0;1.072261333E-1
5.020855794E0;-2.468576431E-1;1.936149120E0;2.319215536E-1
5.030328711E0;6.223201752E-3;7.794733047E-1;3.321664333E-1
5.039801627E0;1.061230183E0;-1.243068218E0;2.927945852E-1
5.049274596E0;2.540995598E0;-3.256827831E0;3.885642290E-1
5.058747513E0;3.328879118E0;-4.584195137E0;4.969316721E-1
5.068220429E0;3.004521370E0;-4.968464851E0;4.595422745E-1
5.077693346E0;2.188571453E0;-4.590895653E0;8.710409403E-1
5.087166263E0;8.562250137E-1;-3.755363464E0;1.465856433E0
5.096639179E0;-8.477015495E-1;-3.052453995E0;1.671067238E0
5.106112096E0;-2.392904758E0;-2.739627838E0;1.789699197E0
5.115585065E0;-3.373095989E0;-2.783222198E0;2.302377224E0
5.125057981E0;-4.218153954E0;-2.897848606E0;2.837739944E0
5.134530898E0;-4.956882000E0;-3.099546909E0;2.723908424E0
5.144003815E0;-5.626587868E0;-3.382272720E0;2.075010538E0
5.153476731E0;-5.980857849E0;-3.592363358E0;1.047182679E0
5.162949648E0;-5.690905571E0;-3.915049553E0;2.996665239E-1
5.172422565E0;-5.267456055E0;-4.022809982E0;-2.249997854E-1
5.181895534E0;-5.168457508E0;-3.941059589E0;-7.676495314E-1
5.191368450E0;-5.709046364E0;-3.301217556E0;-3.274900913E-1
5.200841367E0;-7.029790401E0;-2.290066242E0;4.228472710E-2
5.210314284E0;-8.718979836E0;-8.831739426E-1;-1.651364565E-1
5.219787200E0;-9.809353828E0;6.683940887E-1;-4.044518471E-1
5.229260117E0;-9.295536041E0;1.507978439E0;-5.522905588E-1
5.238733034E0;-7.971153259E0;1.767950058E0;-9.477229118E-1
5.248206002E0;-6.748794556E0;1.920152664E0;-1.781985879E0
5.257678919E0;-4.575313568E0;1.131185532E0;-5.954396725E-1
5.267151836E0;-3.264103413E0;-1.942062378E-1;-2.536369562E0
5.276624752E0;-2.007181168E0;-1.521615028E0;-4.690574646E0
5.286097669E0;-2.368408680E0;-1.712045193E0;-5.115366936E0
5.295570586E0;-3.542635202E0;-1.265685558E0;-4.863775730E0
5.305043502E0;-5.443145752E0;-7.507009506E-1;-4.229184151E0
5.314516471E0;-5.399573326E0;-1.080871105E0;-2.379831791E0
5.323989388E0;-5.530864716E0;-1.305307865E0;-7.749987841E-1
5.333462304E0;-5.663254261E0;-1.607046127E0;-1.543883085E0
5.342935221E0;-4.574081898E0;-2.229893208E0;-3.179957390E0
5.352408138E0;-4.053420544E0;-2.225429058E0;-3.888499975E0
5.361881054E0;-4.695168495E0;-2.036833763E0;-4.356739521E0
5.371353971E0;-5.535464287E0;-7.334938049E-1;-3.579756737E0
5.380826940E0;-4.427309036E0;4.935065269E0;3.085541010E0
5.390299856E0;1.261499882E0;1.231838989E1;1.126180363E1
5.399772773E0;1.956620216E0;1.294695854E1;3.813338757E0
5.409245690E0;4.757592678E-1;6.575675964E0;-6.251247406E0
5.418718606E0;2.062220097E0;-4.334830761E0;-1.177337360E1
5.428191523E0;-2.040389299E0;-7.906489849E0;-8.772644043E0
5.437664492E0;-8.131585121E0;-4.967008591E0;-3.471899509E0
5.447137409E0;-1.471813679E1;-1.133858681E0;-3.482599258E0
5.456610325E0;-1.468936539E1;-8.893041611E-1;-5.641984940E-1
5.466083242E0;-1.088037777E1;-2.035697937E0;5.044092178E0
5.475556159E0;-9.226225853E0;-1.617299080E0;7.358019352E0
5.485029075E0;-1.234788799E1;1.057285309E0;3.394889116E0
5.494501992E0;-1.599088478E1;3.723162651E0;-1.034449339E-1
5.503974961E0;-1.403629494E1;2.969944000E0;-6.990702152E-1
5.513447877E0;-8.326944351E0;9.393653870E-1;-6.074202061E-1
5.522920794E0;-2.971841812E0;1.690397263E-1;-1.200091839E0
5.532393711E0;2.685167789E-1;6.391935349E-1;-2.112314224E0
5.541866627E0;1.407167912E0;1.131987572E0;-3.554719210E0
5.551339544E0;1.519651890E0;1.118047714E0;-3.845768213E0
5.560812461E0;1.192996979E0;6.984376907E-1;-3.679641247E0
5.570285429E0;1.302008510E0;-8.673477173E-2;-3.539534330E0
5.579758346E0;9.923818111E-1;-5.693969727E-1;-3.352130175E0
5.589231263E0;1.991301179E-1;-3.799591064E-1;-2.219928503E0
5.598704179E0;-9.435906410E-1;1.904516220E-1;-6.085271835E-1
5.608177096E0;-1.880054355E0;4.623222351E-1;2.196497917E-1
5.617650013E0;-2.173131466E0;4.136371613E-1;8.351405859E-1
5.627122981E0;-1.927176833E0;2.897939682E-1;1.831887245E0
5.636595898E0;-1.379081249E0;7.175064087E-2;1.765259624E0
5.646068815E0;-2.319637537E-1;-1.820850372E-2;1.185758471E0
5.655541731E0;8.092713952E-1;7.208919525E-2;3.917813301E-2
5.665014648E0;1.849322557E0;1.269702911E-1;-8.602402210E-1
5.674487565E0;2.600836992E0;1.295166016E-1;-1.163159132E0
5.683960481E0;2.282069683E0;4.665279388E-2;-1.083755970E0
5.693433450E0;1.570927262E0;-4.465007782E-2;-3.213148117E-1
5.702906367E0;6.769795418E-1;-1.366271973E-1;8.761044741E-1
5.712379284E0;-1.049120426E-1;-9.993076324E-2;1.608237624E0
5.721852200E0;-4.089848995E-1;7.462406158E-2;1.846974015E0
5.731325117E0;-3.970098495E-1;3.691415787E-1;1.021702290E0
5.740798086E0;7.499718666E-2;4.228973389E-1;6.047258377E-1
5.750271002E0;7.731702328E-1;3.612470627E-1;-2.045807838E-1
5.759743919E0;1.677496672E0;2.139339447E-1;2.404730320E-1
5.769216836E0;2.267623901E0;2.700052261E-1;5.352797508E-1
5.778689752E0;3.368762255E0;8.092145920E-1;-1.873593330E-1
5.788162669E0;4.805417061E0;1.796206474E0;-3.181965351E-1
5.797635586E0;5.178455353E0;2.431326866E0;2.264800072E-1
5.807108554E0;5.327927589E0;1.944573402E0;2.041423321E-1
5.816581471E0;6.008368492E0;1.003268242E0;-5.862531662E-1
5.826054388E0;5.841206074E0;1.215761185E0;-8.870065212E-1
5.835527304E0;4.673134327E0;2.440370560E0;-5.886332989E-1
5.845000221E0;4.385851383E0;2.789689064E0;-2.437105179E-1
5.854473138E0;3.661286592E0;3.037986755E0;2.312908173E-1
5.863946106E0;3.385519266E0;3.316632271E0;4.283702374E-1
5.873419023E0;3.551852465E0;3.606673241E0;1.257157326E-1
5.882891940E0;3.914715290E0;3.724953651E0;-2.632250786E-1
5.892364856E0;4.466857910E0;3.519960403E0;-7.527945042E-1
5.901837773E0;5.345843792E0;3.273411274E0;-1.074443579E0
5.911310690E0;6.571497917E0;3.416816235E0;-9.891774654E-1
5.920783659E0;7.850649834E0;4.551833153E0;-2.229334831E0
5.930256575E0;1.034726715E1;6.719806194E0;-2.143148184E0
5.939729492E0;1.258760834E1;9.330659866E0;1.836586475E0
5.949202409E0;1.233945465E1;1.115357971E1;3.760667324E0
5.958675325E0;1.157818031E1;1.202778721E1;2.853013515E0
5.968148242E0;1.204855442E1;1.336816597E1;3.122546911E0
5.977621211E0;1.189995575E1;1.526454163E1;2.397027731E0
5.987094127E0;1.159378242E1;1.499616146E1;-9.594790936E-1
5.996567044E0;1.130808640E1;1.149089622E1;-5.150208473E0
6.006039961E0;1.163048935E1;7.011355400E0;-6.273861885E0
6.015512877E0;1.083246899E1;3.059919834E0;-7.694872856E0
6.024985794E0;7.862383842E0;3.157410622E-1;-8.344266891E0
6.034458763E0;2.759479523E0;-7.726621628E-2;-9.659436226E0
6.043931679E0;-4.434511662E0;2.245578766E0;-9.668375015E0
6.053404596E0;-6.839889050E0;5.444953442E0;-2.008179665E0
6.062877513E0;-6.554728508E0;8.038189888E0;4.415874004E0
6.072350429E0;-7.649887562E0;8.915616989E0;6.300114155E0
6.081823346E0;-8.465273857E0;6.888723373E0;4.790041447E0
6.091296315E0;-7.646049976E0;3.623745918E0;2.779598713E0
6.100769231E0;-5.141814232E0;1.006765366E0;2.392283201E0
6.110242148E0;-2.697794437E0;-4.327464104E-1;2.343948364E0
6.119715065E0;-1.097614288E0;-1.090710163E0;1.988175988E0
6.129187981E0;-5.824794769E-1;-1.478237629E0;3.005979061E-1
6.138660898E0;-1.012676716E0;-1.921157360E0;-1.509238958E0
6.148133867E0;-1.530260563E0;-2.293118954E0;-2.112929344E0
6.157606784E0;-1.470985413E0;-2.487394333E0;-1.354998827E0
6.167079700E0;-8.324618340E-1;-3.064343929E0;9.680128098E-2
6.176552617E0;2.420606613E-1;-4.283979416E0;4.684436321E-1
6.186025534E0;1.520123482E0;-5.608176231E0;-2.154694796E-1
6.195498502E0;2.316290855E0;-6.542796612E0;-5.269865990E-1
6.204971419E0;2.110840559E0;-6.996198654E0;-3.668229580E-1
6.214444336E0;1.044991493E0;-6.983359337E0;-9.596971273E-1
6.223917252E0;-1.400232315E-1;-6.571269035E0;-1.172558308E0
6.233390169E0;-1.337805271E0;-5.777008057E0;-8.151528835E-1
6.242863086E0;-2.736192226E0;-4.904018402E0;-3.617128134E-1
6.252336054E0;-4.426942825E0;-4.188468933E0;3.569712639E-1
6.261808971E0;-6.210072517E0;-3.447350979E0;9.280240536E-1
6.271281888E0;-7.804654121E0;-2.671274185E0;8.661526442E-1
6.280754804E0;-8.754038811E0;-1.913587570E0;1.207762957E0
6.290227721E0;-9.372364044E0;-1.732192039E0;1.376867652E0
6.299700638E0;-9.498963356E0;-2.478445053E0;1.124180079E0
6.309173606E0;-9.022739410E0;-3.226789951E0;7.405522466E-1
6.318646523E0;-8.323516846E0;-3.218315125E0;3.058277965E-1
6.328119440E0;-7.486024380E0;-2.380111694E0;-3.490451574E-1
6.337592356E0;-7.136030674E0;-2.234535217E-1;-1.063100815E0
6.347065273E0;-6.815356255E0;1.803425789E0;-1.909020782E0
6.356538242E0;-5.392648697E0;2.287781715E0;-4.303992271E0
6.366011159E0;-2.076714516E0;8.072986603E-1;-4.121620178E0
6.375484075E0;-9.270837307E-1;-1.427450180E-1;-3.381576061E0
6.384956992E0;-4.743866444E0;2.277412415E-1;-6.532238483E0
6.394429909E0;-8.248188019E0;1.846454620E0;-5.883198738E0
6.403902825E0;-8.192430496E0;1.972348213E0;-1.558678269E0
6.413375742E0;-5.570689678E0;-8.430871964E-1;2.304088116E0
6.422848711E0;-3.455574989E0;-3.627947807E0;2.044987440E0
6.432321627E0;-2.321478367E0;-4.253904819E0;-1.686459422E0
6.441794544E0;-1.827463508E0;-2.714891434E0;-5.339592934E0
6.451267461E0;-1.994767547E0;-9.346733093E-1;-7.455250740E0
6.460740377E0;-3.019689798E0;-3.553075790E-1;-7.776969910E0
6.470213346E0;-4.342923164E0;4.713001251E-1;-4.909096241E0
6.479686263E0;-1.756971121E0;7.066102982E0;5.538974285E0
6.489159179E0;2.934961319E0;1.733768845E1;1.500032616E1
6.498632096E0;-3.536528349E-1;1.848807526E1;4.210488796E0
6.508105013E0;-5.747699738E-2;4.961165428E0;-6.913364410E0
6.517577929E0;2.923324347E0;-9.153563499E0;-7.092516899E0
6.527050898E0;-3.151319027E-1;-1.025016975E1;-3.975718975E0
6.536523815E0;-7.286153793E0;-5.465629578E0;-7.195026398E0
6.545996731E0;-1.200081921E1;-2.869546413E0;-7.733516693E0
6.555469648E0;-1.248725796E1;-2.075752258E0;5.178165436E-1
6.564942565E0;-1.260119152E1;-1.463395596E0;7.316462517E0
6.574415481E0;-1.533771420E1;6.435146332E-1;6.435890675E0
6.583888450E0;-2.192450714E1;4.065741539E0;5.128198624E0
6.593361367E0;-2.249653816E1;3.843839645E0;3.166305065E0
6.602834284E0;-1.406524563E1;9.457101822E-1;6.204202175E-1
6.612307200E0;-5.713244438E0;-2.263746262E-1;-8.672471046E-1
6.621780117E0;-5.717750788E-1;4.652729034E-1;-2.910829306E0
6.631253034E0;1.054721355E0;1.612153053E0;-6.628499985E0
6.640726002E0;2.585304737E0;1.925065041E0;-7.207756042E0
6.650198919E0;3.187342644E0;1.511507988E0;-6.005154610E0
6.659671836E0;2.705362082E0;3.977870941E-1;-4.743789673E0
6.669144752E0;1.235441804E0;-3.694801331E-1;-3.287958384E0
6.678617669E0;-4.660512805E-1;-2.936658859E-1;-1.485562325E0
6.688090638E0;-1.568126917E0;8.765602112E-2;3.713760376E-1
6.697563554E0;-2.180861235E0;9.541320801E-2;1.180807471E0
6.707036471E0;-2.335196495E0;2.491407394E-1;1.193131447E0
6.716509388E0;-2.080509901E0;4.888343811E-1;6.880900860E-1
6.725982304E0;-1.208075404E0;4.891624451E-1;-3.967642784E-2
6.735455221E0;-1.659119129E-2;3.344821930E-2;-2.501626015E-1
6.744928190E0;7.004543543E-1;-1.397838593E-1;-7.202064991E-1
6.754401106E0;1.938420892E0;-4.644222260E-1;-4.188148975E-1
6.763874023E0;2.335452080E0;-3.137712479E-1;-2.068912983E-1
6.773346940E0;2.299683571E0;-6.897735596E-2;-3.547992706E-1
6.782819856E0;2.301502943E0;1.406526566E-1;-3.531098366E-1
6.792292825E0;1.808787584E0;3.059606552E-1;3.949689865E-2
6.801765742E0;1.158543706E0;3.056516647E-1;9.510368109E-1
6.811238659E0;9.049793482E-1;-1.302909851E-2;1.486535430E0
6.820711575E0;1.266661644E0;-4.073677063E-1;1.116882443E0
6.830184492E0;1.802821398E0;-5.163154602E-1;1.228686929E0
6.839657409E0;1.924804211E0;-3.409395218E-1;4.005069733E-1
6.849130325E0;2.359146833E0;-2.661600113E-1;-1.536664963E-1
6.858603294E0;2.301017761E0;2.471914291E-1;-1.080656052E-2
6.868076211E0;1.736797571E0;9.087438583E-1;-3.536272049E-2
6.877549127E0;7.070405483E-1;1.365222931E0;1.122899652E0
6.887022044E0;-5.967333317E-1;1.647975922E0;1.335776329E0
6.896494961E0;-2.988092899E-1;1.743975639E0;1.240293503E0
6.905967877E0;8.322496414E-1;2.024752617E0;3.179848194E-1
6.915440846E0;2.615776539E0;2.475490570E0;4.626076221E-1
6.924913763E0;4.442786694E0;2.622775078E0;-5.952472687E-1
6.934386679E0;5.805032730E0;2.550365448E0;-1.797913790E0
6.943859596E0;5.995939255E0;2.613298416E0;-1.511324644E0
6.953332513E0;5.757422447E0;2.838264465E0;-8.915140629E-1
6.962805429E0;5.414710522E0;3.290211678E0;3.379859924E-1
6.972278398E0;5.014466286E0;3.589253426E0;8.575026989E-1
6.981751315E0;5.287893772E0;3.598006248E0;4.788687229E-1
6.991224231E0;5.857374191E0;3.587969780E0;4.210472107E-4
7.000697148E0;6.575865269E0;3.438702583E0;-2.323176861E-1
7.010170065E0;7.330821037E0;3.302545071E0;-3.817212582E-1
7.019642981E0;8.163234711E0;3.549571991E0;3.151416779E-2
7.029115950E0;8.771999359E0;4.470585346E0;1.362071991E0
7.038588867E0;9.240995407E0;6.394837856E0;7.739226818E-1
7.048061784E0;1.117376423E1;9.227228165E0;3.518970490E0
7.057534700E0;1.113119221E1;1.214551926E1;6.959382534E0
7.067007617E0;9.166072845E0;1.329294205E1;5.274520874E0
7.076480586E0;9.505552292E0;1.335180378E1;3.080764532E0
7.085953502E0;1.096519089E1;1.372204208E1;1.027318954E0
7.095426419E0;1.193297482E1;1.253709221E1;-4.886890411E0
7.104899336E0;1.333285046E1;8.779915810E0;-1.004503918E1
7.114372252E0;1.449436760E1;4.572122574E0;-1.199332333E1
7.123845169E0;1.266532707E1;1.376137257E0;-1.120676613E1
7.133318138E0;7.065269470E0;6.682987213E-1;-1.155978012E1
7.142791054E0;-7.969894409E-1;2.660639286E0;-1.321384621E1
7.152263971E0;-7.194946289E0;6.219429970E0;-7.260242462E0
7.161736888E0;-7.680358410E0;8.691366196E0;2.201281071E0
7.171209804E0;-9.176031113E0;9.134593964E0;6.355079651E0
7.180682721E0;-1.078963184E1;7.260302067E0;5.844943047E0
7.190155690E0;-9.407263756E0;3.447419643E0;3.629281521E0
7.199628606E0;-6.158415794E0;1.823949814E-1;2.765049458E0
7.209101523E0;-3.493874550E0;-1.034253597E0;2.012887478E0
7.218574440E0;-2.310462952E0;-6.469244957E-1;8.993899822E-1
7.228047356E0;-2.037476540E0;1.161913872E-1;-1.621961594E-1
7.237520273E0;-2.014020920E0;2.791657448E-1;-1.439932585E0
7.246993242E0;-2.259442329E0;-5.964775085E-1;-2.365705490E0
7.256466159E0;-2.193886757E0;-2.163093090E0;-2.732295990E0
7.265939075E0;-1.113359451E0;-3.935063362E0;-1.868852019E0
7.275411992E0;3.209381104E-1;-5.418386936E0;-4.379657507E-1
7.284884909E0;1.598262787E0;-6.145599365E0;-4.187997580E-1
7.294357825E0;2.740399122E0;-6.095055580E0;-9.886349440E-1
7.303830794E0;3.371749163E0;-5.798030853E0;-1.324196458E0
7.313303711E0;3.054370642E0;-5.534732819E0;-1.779057384E0
7.322776627E0;2.294670105E0;-5.581653595E0;-1.900728822E0
7.332249544E0;1.177490711E0;-5.648851395E0;-1.775435209E0
7.341722461E0;-7.429971695E-1;-5.314568520E0;-1.506747246E0
7.351195377E0;-3.532443047E0;-4.507904530E0;-7.284839153E-1
7.360668346E0;-6.398774624E0;-3.549468994E0;3.932671547E-1
7.370141263E0;-8.018886566E0;-2.911720753E0;1.747403145E0
7.379614179E0;-8.086065292E0;-2.823427200E0;1.989390373E0
7.389087096E0;-7.600576878E0;-3.086688042E0;7.663515210E-1
7.398560013E0;-7.633822441E0;-3.216947079E0;-1.152804613E0
7.408032981E0;-8.029211044E0;-2.940304756E0;-2.223094702E0
7.417505898E0;-8.534705162E0;-2.406968594E0;-1.705363750E0
7.426978815E0;-8.941576958E0;-1.356057167E0;-9.764366150E-1
7.436451731E0;-8.843934059E0;-6.358623505E-2;-7.649370432E-1
7.445924648E0;-8.010515213E0;1.194465637E0;-1.025358081E0
7.455397565E0;-6.665320873E0;1.397118568E0;-1.510075331E0
7.464870481E0;-4.931758404E0;5.859375000E-2;-2.878274202E0
7.474343450E0;-2.783215046E0;-1.964209557E0;-1.979877114E0
7.483816367E0;-4.485493183E0;3.082113266E-1;-4.436364174E0
7.493289284E0;-5.938558578E0;2.728178978E0;-6.498247623E0
7.502762200E0;-6.777145386E0;2.962080956E0;-5.336891174E0
7.512235117E0;-5.726040363E0;9.384775162E-1;-1.278652906E0
7.521708034E0;-3.561442852E0;-2.806281567E0;1.214007854E0
7.531181002E0;-2.005692482E0;-5.654517174E0;-1.327801824E0
7.540653919E0;-1.242100239E0;-4.635589123E0;-4.926079750E0
7.550126836E0;-1.063429832E0;-1.362179279E0;-6.674054146E0
7.559599752E0;-1.294190645E0;8.265018463E-1;-6.346593857E0
7.569072669E0;-2.271677732E0;6.020812988E-1;-5.146946907E0
7.578545586E0;-3.884335995E0;-1.638281822E0;-4.455372334E0
7.588018554E0;-5.743217945E0;-2.995856762E0;-3.673689365E0
7.597491471E0;-5.787694454E0;2.582931519E0;4.367366314E0
7.606964388E0;-6.279881001E-1;1.572622585E1;2.011118317E1
7.616437304E0;1.116472483E0;1.965431595E1;5.891085625E0
7.625910221E0;-4.027073383E-1;1.067209339E1;-6.613925457E0
7.635383138E0;2.331630707E0;-8.442788124E0;-1.123688221E1
7.644856054E0;7.775781155E-1;-1.314103889E1;-6.375097275E0
7.654329023E0;-7.726684570E0;-4.841271400E0;-2.093656540E0
7.663801940E0;-1.559544277E1;1.959994316E0;-3.449578762E0
7.673274856E0;-1.350967503E1;1.357515335E0;-1.937910318E0
7.682747773E0;-7.266462326E0;-2.311254978E0;3.146168709E0
7.692220690E0;-4.268501759E0;-4.546637535E0;4.749509335E0
7.701693659E0;-1.128744698E1;-7.749423981E-1;1.218847275E0
7.711166575E0;-2.001112556E1;3.788866043E0;7.896211147E-1
7.720639492E0;-1.739535713E1;2.995800972E0;2.590953827E0
7.730112409E0;-8.562425613E0;8.725948334E-1;2.736073732E0
7.739585325E0;-1.802991152E0;3.106441498E-1;7.548050880E-1
7.749058242E0;1.134768009E0;8.482160568E-1;-3.004110813E0
7.758531211E0;1.009335160E0;1.731083870E0;-5.986833572E0
7.768004127E0;6.153319478E-1;1.313241005E0;-5.460984230E0
7.777477044E0;7.050544024E-2;2.465934753E-1;-3.779767036E0
7.786949961E0;-5.203267336E-1;-6.736745834E-1;-2.375135183E0
7.796422877E0;-1.668889046E0;-5.388727188E-1;-6.445415020E-1
7.805895794E0;-2.794391632E0;3.317966461E-1;1.551897764E0
7.815368763E0;-3.385648727E0;1.096364021E0;2.086232185E0
7.824841679E0;-3.141867876E0;1.058154106E0;1.376685023E0
7.834314596E0;-2.526222706E0;7.434988022E-1;4.678131342E-1
7.843787513E0;-1.600787997E0;3.535528183E-1;-2.491605282E-1
7.853260429E0;-5.019936562E-1;2.717857361E-1;-7.502851486E-1
7.862733346E0;8.298004866E-1;2.012882233E-1;-1.186422348E0
7.872206263E0;1.930909157E0;-1.119308472E-1;-1.015961885E0
7.881679231E0;2.297711372E0;-9.610652924E-2;-7.855751514E-1
7.891152148E0;2.170066118E0;1.498632431E-1;-3.378508091E-1
7.900625065E0;2.042313576E0;1.578369141E-1;3.522534370E-1
7.910097981E0;1.733623624E0;-1.164627075E-1;1.113922834E0
7.919570898E0;1.398873568E0;-7.124357224E-1;1.939904451E0
7.929043815E0;1.152594924E0;-1.178057194E0;1.253459692E0
7.938516784E0;1.650102615E0;-8.210496902E-1;4.155764580E-1
7.947989700E0;2.644654512E0;-2.667055130E-1;-4.964399338E-2
7.957462617E0;2.956792831E0;1.481990814E-1;-1.231653214E0
7.966935534E0;3.126605511E0;3.347749710E-1;-1.213977098E0
7.976408450E0;3.481829166E0;5.366611481E-1;-6.606791019E-1
7.985881367E0;2.514393091E0;1.001253128E0;-1.907165051E-1
7.995354336E0;2.091953993E0;8.180580139E-1;2.137565613E-1
8.004827252E0;5.725419521E-1;1.568683624E0;1.018289089E0
8.014300169E0;7.467122078E-1;1.934495926E0;1.920394421E0
8.023773086E0;1.588122845E0;1.560719490E0;1.968356133E0
8.033246002E0;2.503384352E0;1.896607399E0;3.840718269E-1
8.042718919E0;4.414295197E0;2.532709122E0;-3.543806076E-1
8.052191836E0;5.324850082E0;2.923027992E0;-6.539058685E-1
8.061664804E0;6.095438957E0;2.882926941E0;-9.685966969E-1
8.071137721E0;6.166495323E0;3.010148048E0;-1.147048712E0
8.080610638E0;5.783034325E0;3.395592690E0;-1.093808413E0
8.090083554E0;5.653224945E0;3.676693916E0;-1.335295916E0
8.099556471E0;5.696736813E0;3.859645844E0;-1.275675774E0
8.109029388E0;6.159417152E0;3.915048599E0;-8.846669197E-1
8.118502356E0;7.025308609E0;3.831395626E0;-4.545409679E-1
8.127975273E0;8.144607544E0;4.053130150E0;3.208594322E-1
8.137448190E0;9.051774025E0;4.749643326E0;1.575166583E0
8.146921106E0;9.306691170E0;6.283512592E0;1.381492257E0
8.156394023E0;1.018639374E1;8.793643951E0;1.484586954E0
8.165866992E0;1.009220123E1;1.221875191E1;5.584244251E0
8.175339909E0;7.386552334E0;1.452153778E1;4.475945473E0
8.184812825E0;7.623643398E0;1.440430260E1;2.962575912E0
8.194285742E0;9.796142578E0;1.432223511E1;3.056519032E0
8.203758659E0;1.123130131E1;1.333023548E1;-2.431654930E0
8.213231575E0;1.233266354E1;1.009114265E1;-9.574377060E0
8.222704492E0;1.402868271E1;6.018954277E0;-1.176858711E1
8.232177461E0;1.355295753E1;2.351797104E0;-1.141452599E1
8.241650377E0;1.033263016E1;4.630002975E-1;-1.031092167E1
8.251123294E0;4.433466911E0;1.260448456E0;-1.168247986E1
8.260596211E0;-2.926565647E0;4.173404694E0;-1.075953865E1
8.270069127E0;-6.080018520E0;6.872578621E0;-3.640972853E0
8.279542044E0;-6.686704159E0;8.148893356E0;2.449942827E0
8.289014961E0;-8.504845619E0;7.538267136E0;4.481746674E0
8.298487929E0;-9.343652725E0;5.419496536E0;4.551970959E0
8.307960846E0;-7.658273697E0;2.090249062E0;3.903094053E0
8.317433763E0;-5.333760738E0;-1.055550575E-1;3.890615702E0
8.326906679E0;-3.671806812E0;-8.054642677E-1;3.631460190E0
8.336379596E0;-2.993917942E0;-6.880292892E-1;2.440764189E0
8.345852513E0;-2.736423492E0;-4.369401932E-1;1.023778677E0
8.355325481E0;-2.565338612E0;-6.230683327E-1;-2.510356903E-2
8.364798398E0;-2.080903530E0;-1.511244774E0;-6.784279346E-1
8.374271315E0;-1.478994846E0;-2.690122604E0;-9.530301094E-1
8.383744231E0;-3.776674271E-1;-3.978894472E0;-7.201982737E-1
8.393217148E0;1.061651707E0;-5.030380249E0;1.926369667E-1
8.402690065E0;2.241473198E0;-5.533753872E0;4.826142788E-1
8.412163034E0;2.775408983E0;-5.477353573E0;3.237020969E-2
8.421635950E0;2.831786633E0;-5.370740891E0;1.088963747E-1
8.431108867E0;2.139439583E0;-5.366845131E0;3.317104578E-1
8.440581784E0;6.213278770E-1;-5.422249317E0;1.465797424E-2
8.450054700E0;-1.241703987E0;-5.422115326E0;2.117156982E-4
8.459527617E0;-3.252964497E0;-5.091763020E0;6.282418370E-1
8.469000534E0;-5.394030571E0;-4.356718063E0;1.891296268E0
8.478473502E0;-7.392558098E0;-3.659496307E0;2.770379066E0
8.487946419E0;-8.501075745E0;-3.289855480E0;3.212666035E0
8.497419336E0;-8.941401482E0;-3.290544033E0;2.925308228E0
8.506892252E0;-8.790398598E0;-3.540421009E0;1.462569475E0
8.516365169E0;-8.789605141E0;-3.344142914E0;2.444267273E-3
8.525838086E0;-8.968558311E0;-2.781434059E0;-4.881030321E-1
8.535311054E0;-8.705887794E0;-2.270697117E0;-1.098474622E0
8.544783971E0;-7.520929813E0;-1.721546650E0;-1.482902527E0
8.554256888E0;-6.675970554E0;-4.734239578E-1;-1.771643758E0
8.563729804E0;-5.552005768E0;1.094509125E0;-2.439846516E0
8.573202721E0;-3.230857849E0;1.253767014E0;-3.685689449E0
8.582675638E0;-2.155422211E0;1.679362297E0;-3.973710060E0
8.592148606E0;-2.270702839E0;2.697908401E0;-3.710876465E0
8.601621523E0;-3.951108217E0;2.784502029E0;-6.410179138E0
8.611094440E0;-6.246527672E0;2.224577904E0;-5.413226604E0
8.620567356E0;-7.996859550E0;9.367036819E-1;-2.214421272E0
8.630040273E0;-5.657586098E0;-1.973643780E0;1.230145574E0
8.639513190E0;-3.713314533E0;-4.057260036E0;1.230649233E0
8.648986159E0;-4.032178879E0;-3.721070766E0;-2.956008911E0
8.658459075E0;-3.544014931E0;-2.209422588E0;-5.580192089E0
8.667931992E0;-3.513607740E0;-8.039016724E-1;-5.417626381E0
8.677404909E0;-4.378677368E0;-7.461261749E-1;-4.412386894E0
8.686877825E0;-5.568385124E0;-1.971111774E0;-3.669321537E0
8.696350742E0;-7.093206406E0;-2.935443878E0;-2.922350883E0
8.705823659E0;-7.621523380E0;3.830060959E-1;1.616399050E0
8.715296627E0;-1.788808227E0;1.324220181E1;1.833901405E1
8.724769544E0;8.555330276E0;1.980717278E1;1.131593037E1
8.734242461E0;2.810373306E0;1.698350525E1;-6.401053429E0
8.743715377E0;6.426393509E0;-5.159130573E0;-1.418604088E1
8.753188294E0;4.423459053E0;-1.473681831E1;-1.043707752E1
8.762661211E0;-5.326704025E0;-8.504298210E0;-2.847869396E0
8.772134179E0;-1.562497044E1;-9.472475052E-1;-2.891138554E0
8.781607096E0;-1.684664345E1;8.755197525E-1;-1.785918951E0
8.791080013E0;-1.169408321E1;-1.308489799E0;4.493141651E0
8.800552929E0;-1.043008709E1;-2.759320259E0;6.069109440E0
8.810025846E0;-1.771336365E1;1.219081879E0;1.584861040E0
8.819498763E0;-2.274700165E1;4.832517624E0;2.184362411E-1
8.828971731E0;-1.690284729E1;3.088549614E0;-1.167297363E-3
8.838444648E0;-7.386096001E0;8.646097183E-1;-7.345709801E-1
8.847917565E0;-2.100186348E-1;4.010438919E-1;-1.708682060E0
8.857390481E0;2.875086308E0;9.027013779E-1;-4.554604530E0
8.866863398E0;3.404571056E0;1.476854324E0;-4.543395996E0
8.876336315E0;2.653499126E0;1.357125282E0;-3.165373325E0
8.885809231E0;1.582671523E0;4.739303589E-1;-2.764955282E0
8.895282148E0;8.844876289E-1;-6.171302795E-1;-2.949183941E0
8.904755117E0;-2.999584675E-1;-8.472013474E-1;-2.243925810E0
8.914228034E0;-1.580272675E0;-2.198953629E-1;-1.041525126E0
8.923700950E0;-2.228725195E0;4.660482407E-1;-6.325218678E-1
8.933173867E0;-2.146605015E0;7.646036148E-1;6.489348412E-2
8.942646784E0;-1.779889703E0;6.655397415E-1;4.270849228E-1
8.952119700E0;-1.075608015E0;3.163824081E-1;8.752559423E-1
8.961592669E0;-2.302105427E-1;-4.701614380E-3;5.941243172E-1
8.971065586E0;6.152125597E-1;5.964279175E-3;2.500212193E-1
8.980538502E0;1.255638123E0;1.656017303E-1;-6.634974480E-2
8.990011419E0;1.257502556E0;3.015403748E-1;4.940748215E-2
8.999484336E0;1.135666370E0;5.864143372E-2;7.074195147E-1
9.008957252E0;1.076390386E0;-2.389936447E-1;7.519249916E-1
9.018430221E0;9.772105217E-1;-2.043218613E-1;7.925754786E-1
9.027903138E0;1.804887652E0;-3.057975769E-1;9.074511528E-1
9.037376054E0;2.490510464E0;-1.705589294E-1;8.383235931E-1
9.046848971E0;3.233063698E0;-1.524105072E-1;5.588874817E-1
9.056321888E0;3.889589548E0;-1.954660416E-1;2.262489796E-1
9.065794804E0;3.862090111E0;-1.514701843E-1;3.832991123E-1
9.075267773E0;2.939543486E0;2.220268250E-1;4.522395134E-1
9.084740690E0;3.379133940E0;1.311321259E-1;-1.748285294E0
9.094213606E0;2.890261412E0;9.729480743E-1;-9.238662720E-1
9.103686523E0;1.535588503E0;2.505297661E0;-1.315443516E-1
9.113159440E0;1.272439718E0;2.630207062E0;2.700767517E-1
9.122632356E0;1.184115410E0;2.189423561E0;9.072693586E-1
9.132105273E0;1.148025513E0;2.350968361E0;1.091193199E0
9.141578242E0;2.991267443E0;2.587901115E0;2.063169479E-1
9.151051159E0;5.179788113E0;2.981233597E0;-8.857243061E-1
9.160524075E0;6.090027809E0;3.202749252E0;-5.521979332E-1
9.169996992E0;6.435222626E0;3.146176338E0;-2.899599075E-1
9.179469909E0;6.413498878E0;3.185496330E0;-3.726911545E-1
9.188942825E0;6.847439766E0;3.307878494E0;-8.588559628E-1
9.198415742E0;7.482652664E0;3.583723068E0;-1.431894779E0
9.207888711E0;8.067193031E0;3.994482994E0;-1.365880013E0
9.217361627E0;8.497323036E0;4.391232967E0;-5.064270496E-1
9.226834544E0;8.602418900E0;5.030648232E0;-8.085808754E-1
9.236307461E0;9.805205345E0;6.486695290E0;-1.586758614E0
9.245780377E0;1.193433189E1;9.036518097E0;2.950294971E0
9.255253294E0;1.065546608E1;1.140528011E1;5.171709061E0
9.264726263E0;8.236032486E0;1.271447754E1;3.682378292E0
9.274199179E0;8.656394005E0;1.396446800E1;3.238379240E0
9.283672096E0;1.074026203E1;1.569797707E1;3.607287645E0
9.293145013E0;1.111079502E1;1.592281151E1;-1.455325365E0
9.302617929E0;1.093091583E1;1.271702576E1;-8.702477455E0
9.312090846E0;1.178621864E1;8.238375664E0;-1.058809853E1
9.321563763E0;1.129454422E1;4.027743816E0;-1.181647491E1
9.331036731E0;8.817936897E0;7.446455956E-1;-1.120763493E1
9.340509648E0;3.322360039E0;4.317107201E-1;-1.189151287E1
9.349982565E0;-3.807649612E0;3.334441185E0;-1.014955521E1
9.359455481E0;-5.660768986E0;6.330010891E0;-2.860798120E0
9.368928398E0;-6.001878262E0;8.013866425E0;1.754268050E0
9.378401315E0;-7.194980621E0;7.668164253E0;3.295552254E0
9.387874284E0;-7.732721806E0;5.375751019E0;2.856091499E0
9.397347200E0;-6.836341858E0;2.468116283E0;2.220987320E0
9.406820117E0;-4.725514412E0;-9.695625305E-2;2.095206738E0
9.416293034E0;-3.317743301E0;-1.126363277E0;2.373148918E0
9.425765950E0;-3.080690861E0;-1.075950146E0;1.721671104E0
9.435238867E0;-3.279409409E0;-1.097441196E0;4.328191280E-1
9.444711784E0;-3.068757534E0;-1.394919872E0;6.482720375E-2
9.454184752E0;-2.418516636E0;-2.043578148E0;3.733158112E-1
9.463657669E0;-1.951175213E0;-2.832467318E0;5.348567963E-1
9.473130586E0;-1.398350716E0;-3.890730619E0;1.568312645E-1
9.482603502E0;9.855747223E-3;-5.215181351E0;-4.679449797E-1
9.492076419E0;1.862634659E0;-6.307804585E0;-7.784066200E-1
9.501549336E0;3.175068855E0;-6.889484406E0;-8.183544874E-1
9.511022304E0;3.365341663E0;-6.830401421E0;-8.838247061E-1
9.520495221E0;2.435762644E0;-6.268846512E0;-1.145210147E0
9.529968138E0;1.165124893E0;-5.700772285E0;-1.210742235E0
9.539441054E0;-1.601877213E-1;-5.309009552E0;-1.005202770E0
9.548913971E0;-1.587203503E0;-5.121591568E0;-3.828643560E-1
9.558386888E0;-3.236231089E0;-4.767399311E0;4.069453478E-1
9.567859804E0;-5.308094501E0;-4.201399326E0;6.799430847E-1
9.577332773E0;-7.213361740E0;-3.614960194E0;6.024590731E-1
9.586805690E0;-8.274539948E0;-2.955777645E0;1.277464986E0
9.596278606E0;-9.039121628E0;-2.723365307E0;1.473202705E0
9.605751523E0;-9.381731033E0;-3.252854347E0;6.184776425E-1
9.615224440E0;-9.506673813E0;-3.782910824E0;-4.545943737E-1
9.624697356E0;-1.004331112E1;-3.525907516E0;-7.393939495E-1
9.634170325E0;-1.027374458E1;-2.486611843E0;-8.900734186E-1
9.643643242E0;-9.526260376E0;-1.234631538E0;-1.138703465E0
9.653116159E0;-7.924388409E0;-8.207988739E-2;-1.710308909E0
9.662589075E0;-5.908362389E0;5.268363953E-1;-3.424625397E0
9.672061992E0;-2.684186697E0;4.904527664E-1;-4.943848610E0
9.681534909E0;1.391473770E0;2.984676361E-1;-3.470624447E0
9.691007825E0;1.616884470E0;7.717294693E-1;-4.622040749E0
9.700480742E0;-7.645280361E-1;1.085593224E0;-7.603737354E0
9.709953711E0;-3.025873423E0;9.450044632E-1;-6.181746006E0
9.719426627E0;-3.723422527E0;6.421384811E-1;-1.961901546E0
9.728899544E0;-3.026067019E0;-1.003087521E0;1.339157104E0
9.738372461E0;-3.099221230E0;-3.060865402E0;3.195738792E-1
9.747845377E0;-3.234556675E0;-3.684852600E0;-2.078016996E0
9.757318294E0;-3.314927578E0;-2.503068924E0;-3.850219250E0
9.766791263E0;-3.710104465E0;-1.299438000E0;-4.416297436E0
9.776264179E0;-4.785997391E0;-1.029241562E0;-3.912276745E0
9.785737096E0;-6.524699211E0;-1.396661758E0;-2.858153343E0
9.795210013E0;-9.133602142E0;-2.407896996E0;-3.437088013E0
9.804682929E0;-1.076186085E1;-3.395509243E0;-3.445859909E0
9.814155846E0;-1.008110237E1;3.602943420E-1;3.073128700E0
9.823628763E0;1.353510737E0;1.405080509E1;2.910573387E1
9.833101679E0;7.929183960E0;2.818552399E1;1.452234364E1
9.842574648E0;-2.535679340E-1;2.552870178E1;-1.292180157E1
9.852047565E0;6.291641235E0;-7.462755203E0;-1.586680794E1
9.861520481E0;8.141651154E0;-1.884974098E1;-7.146614552E0
9.870993398E0;-6.028347015E0;-1.088762188E1;-1.273281336E0
9.880466315E0;-2.137376976E1;-2.329596519E0;-4.414905071E0
9.889939231E0;-1.914632225E1;-9.457025528E-1;-1.276778579E0
9.899412200E0;-9.122375488E0;-5.859859467E0;6.556717873E0
9.908885117E0;-7.609223843E0;-4.120368958E0;3.371038198E0
9.918358034E0;-1.828089714E1;5.806180954E0;-1.834725618E0
9.927830950E0;-2.214124680E1;9.208988190E0;-1.825086594E0
9.937303867E0;-1.069739532E1;4.353988647E0;-9.238367081E-1
9.946776784E0;-7.032728195E-2;8.889427185E-1;-2.909970284E-1
9.956249700E0;3.555634975E0;-2.995834351E-1;-2.852243662E0
9.965722669E0;3.073138237E0;-2.144556046E-1;-3.953907967E0
9.975195586E0;1.463695884E0;3.310709000E-1;-2.835741520E0
9.984668502E0;-5.734735727E-1;8.246345520E-1;-1.891643763E0
9.994141419E0;-2.309157610E0;5.876512527E-1;-1.548104286E0
1.000361434E1;-3.440759182E0;1.297512054E-1;-6.516599655E-1
1.001308725E1;-3.768609285E0;-6.632614136E-2;1.438000202E-1
1.002256017E1;-3.680544138E0;2.430124283E-1;-9.141421318E-2
1.003203314E1;-3.422939301E0;9.861059189E-1;-3.691549301E-1
1.004150605E1;-1.838345051E0;9.977054596E-1;-7.032918930E-2
1.005097897E1;2.342939377E-2;4.986839294E-1;-1.344919205E-3
1.006045189E1;1.012751937E0;3.004713058E-1;-1.139571667E-1
1.006992480E1;1.393430948E0;3.615751266E-1;1.077656746E-1
1.007939772E1;1.717770219E0;3.133192062E-1;-2.002286911E-2
1.008887064E1;1.875081182E0;2.066144943E-1;-1.302587986E-1
1.009834361E1;1.442684650E0;2.090234756E-1;-2.045018673E-1
1.010781652E1;6.794416904E-1;1.811027527E-2;2.572605610E-1
1.011728944E1;3.353333473E-2;3.226203918E-1;6.839921474E-1
1.012676236E1;-7.064080238E-1;1.553544998E-1;1.423747778E0
1.013623527E1;-5.654072762E-1;-3.906278610E-1;1.163085103E0
1.014570819E1;1.027940273E0;-9.664263725E-1;2.910091877E-1
1.015518111E1;3.200126648E0;-3.442115784E-1;6.606667042E-1
1.016465402E1;4.910264492E0;8.192186356E-1;-8.056545258E-2
1.017412699E1;6.870396137E0;1.058462143E0;-1.932302713E0
1.018359991E1;6.745615959E0;1.617153168E0;-1.085915565E0
1.019307282E1;4.695878506E0;1.911126137E0;5.522756577E-1
1.020254574E1;2.356571198E0;1.832809448E0;7.810900211E-1
1.021201866E1;9.973740578E-1;2.226116180E0;7.501091957E-1
1.022149158E1;7.702255249E-2;3.234788895E0;8.490655422E-1
1.023096449E1;4.912793636E-1;3.589852333E0;1.121213794E0
1.024043746E1;2.250097275E0;3.170513153E0;8.859395981E-2
1.024991038E1;4.206593990E0;2.846897125E0;-1.013975382E0
1.025938329E1;5.812981606E0;3.223524094E0;-1.211199522E0
1.026885621E1;7.017807007E0;3.366490364E0;-9.853687286E-1
1.027832913E1;8.232293129E0;3.204548836E0;-8.187463284E-1
1.028780204E1;9.088497162E0;3.284579277E0;-6.447584629E-1
1.029727496E1;9.338134766E0;3.766699791E0;-4.991843700E-1
1.030674793E1;9.167139053E0;4.128022194E0;-4.098098278E-1
1.031622085E1;9.280266762E0;4.296671391E0;-9.959530830E-2
1.032569376E1;9.486227036E0;4.582255840E0;1.078800678E0
1.033516668E1;9.599329948E0;5.142635345E0;2.688739538E0
1.034463960E1;9.681538582E0;6.727399349E0;2.120135307E0
1.035411251E1;1.122951889E1;9.764051437E0;2.107400179E0
1.036358548E1;1.180089283E1;1.332963848E1;3.507940292E0
1.037305840E1;1.174174309E1;1.501255226E1;2.041945934E0
1.038253132E1;1.292621231E1;1.453839588E1;5.596183538E-1
1.039200423E1;1.335506058E1;1.262240982E1;-2.743307590E0
1.040147715E1;1.311578941E1;8.836236000E0;-9.155220032E0
1.041095007E1;1.240266800E1;5.805930614E0;-1.055581856E1
1.042042298E1;1.065729713E1;4.109175205E0;-1.036985683E1
1.042989590E1;7.277967453E0;3.467132092E0;-9.809234619E0
1.043936882E1;2.085162163E0;3.888360500E0;-1.056276512E1
1.044884178E1;-4.915889740E0;5.211521149E0;-1.030208683E1
1.045831470E1;-7.688960075E0;6.667789459E0;-4.722347260E0
1.046778762E1;-7.729546547E0;7.514921188E0;1.062375307E0
1.047726053E1;-8.419961929E0;7.720138550E0;4.322185993E0
1.048673345E1;-8.671137810E0;6.221961975E0;4.948797226E0
1.049620637E1;-8.289031982E0;3.333851814E0;3.655780077E0
1.050567928E1;-7.037312508E0;1.108053207E0;3.228279829E0
1.051515225E1;-5.244021416E0;2.391948700E-1;3.394836664E0
1.052462517E1;-4.055263996E0;-1.580557823E-1;2.227890253E0
1.053409809E1;-3.184863091E0;-7.563800812E-1;1.267542839E0
1.054357100E1;-2.522343636E0;-1.572535515E0;8.092784882E-2
1.055304392E1;-2.022721767E0;-2.586963654E0;-4.342019558E-1
1.056251684E1;-1.434864044E0;-3.808832645E0;9.016132355E-2
1.057198975E1;-7.062907219E-1;-5.040805817E0;9.543570280E-1
1.058146272E1;-3.133215904E-1;-5.878311157E0;1.516091943E0
1.059093564E1;1.463274956E-1;-6.401698589E0;1.007398129E0
1.060040855E1;1.274889469E0;-6.823946953E0;1.288331747E-1
1.060988147E1;2.830471754E0;-6.973094940E0;6.241476536E-2
1.061935439E1;3.676209927E0;-6.812551022E0;3.692901134E-2
1.062882730E1;3.508404255E0;-6.361048698E0;-1.490187645E-2
1.063830022E1;2.347023249E0;-5.887713432E0;-5.866646767E-3
1.064777314E1;3.491141796E-1;-5.440527916E0;1.909971237E-3
1.065724611E1;-2.102064848E0;-5.078067780E0;4.509103298E-1
1.066671902E1;-4.893856525E0;-4.688561440E0;7.501413822E-1
1.067619194E1;-7.316555977E0;-3.920034885E0;1.487788200E0
1.068566486E1;-9.390316963E0;-2.525369167E0;3.007049322E0
1.069513777E1;-1.096704197E1;-1.055616379E0;3.249358892E0
1.070461069E1;-1.184848785E1;-6.156177521E-1;2.303855419E0
1.071408361E1;-1.164116192E1;-1.473091125E0;1.595590591E0
1.072355658E1;-1.123324776E1;-2.058071613E0;7.087233663E-1
1.073302949E1;-1.042785263E1;-1.576211929E0;-1.615594625E-1
1.074250241E1;-8.079758644E0;-7.785329819E-1;-3.936134577E-1
1.075197532E1;-5.508172512E0;9.975824356E-1;-9.818648100E-1
1.076144824E1;-2.867527008E0;1.641448975E0;-2.157910824E0
1.077092116E1;-7.189202309E-2;1.437283516E0;-4.295924187E0
1.078039408E1;1.832271338E0;6.321325302E-1;-4.605015755E0
1.078986699E1;-2.913931847E0;2.955322266E0;-6.657279968E0
1.079933996E1;-3.888657331E0;2.956768036E0;-6.593245029E0
1.080881288E1;-3.122806072E0;7.644872665E-1;-5.294903755E0
1.081828579E1;-2.138712406E0;-2.220393658E0;-1.529247642E0
1.082775871E1;-3.236818075E0;-3.805988312E0;1.774491310E0
1.083723163E1;-6.755243301E0;-3.858754635E0;5.675681829E-1
1.084670454E1;-7.700180054E0;-3.210888863E0;-2.027741432E0
1.085617746E1;-7.351727486E0;-2.312664032E0;-2.571132898E0
1.086565043E1;-8.444456100E0;-1.038247585E0;-2.647926331E0
1.087512335E1;-7.642654419E0;3.615989685E0;5.391048193E-1
1.088459626E1;3.725314140E-1;1.225584126E1;1.124621964E1
1.089406918E1;3.720384836E0;1.971108055E1;8.960800171E0
1.090354210E1;1.327099800E0;1.571424580E1;-4.118618965E0
1.091301501E1;3.695856094E0;-6.976175308E-1;-1.039278984E1
1.092248793E1;1.834298730E0;-1.017616367E1;-8.336339951E0
1.093196085E1;-4.686154366E0;-9.910528183E0;-6.496800423E0
1.094143376E1;-1.203532600E1;-6.980920792E0;-9.631065369E0
1.095090673E1;-1.371815014E1;-5.986177921E0;-6.808142662E0
1.096037965E1;-1.132771873E1;-4.599591255E0;2.130824327E0
1.096985256E1;-1.186343765E1;-1.075110435E0;7.102797031E0
1.097932548E1;-1.820268440E1;5.171490669E0;6.465765953E0
1.098879840E1;-2.400685310E1;8.783908844E0;4.507256031E0
1.099827132E1;-1.973836517E1;4.593343735E0;1.740080357E0
1.100774423E1;-1.125880623E1;3.170032501E-1;4.355322123E-1
1.101721715E1;-4.332750320E0;-8.855915070E-1;-2.172250748E-1
1.102669012E1;-2.776469588E-1;-3.703460693E-1;-2.935742378E0
1.103616303E1;1.403847694E0;8.541879654E-1;-5.486905098E0
1.104563595E1;2.360581160E0;1.699630737E0;-5.044820786E0
1.105510887E1;2.635131836E0;1.559959412E0;-3.877185345E0
1.106458178E1;2.063457012E0;6.721773148E-1;-3.362007856E0
1.107405470E1;8.253119588E-1;-5.884170532E-3;-2.962657213E0
1.108352762E1;-1.615474224E-1;-5.940914154E-2;-2.232593298E0
1.109300059E1;-6.485176086E-1;6.546497345E-2;-1.147405624E0
1.110247350E1;-1.199141145E0;2.202892303E-2;-6.782023907E-1
1.111194642E1;-1.863873363E0;4.267368317E-1;-2.099056244E-1
1.112141934E1;-1.233353138E0;3.601083755E-1;3.386006355E-1
1.113089225E1;-7.098174095E-2;-6.331348419E-2;5.983049870E-1
1.114036517E1;7.950638533E-1;-1.959562302E-1;4.215898514E-1
1.114983809E1;1.294951320E0;-1.247024536E-1;6.184577942E-2
1.115931100E1;1.968968153E0;-1.073961258E-1;1.148519516E-1
1.116878392E1;2.656293869E0;-6.946754456E-2;1.233344078E-1
1.117825689E1;2.872377396E0;-1.797294617E-2;-4.455518723E-2
1.118772980E1;2.931872606E0;-9.377288818E-2;-2.723917961E-1
1.119720272E1;2.355021954E0;-2.943992615E-2;-2.721507549E-1
1.120667564E1;1.673161864E0;-9.459590912E-2;2.860083580E-1
1.121614855E1;7.477918863E-1;6.371498108E-2;1.020652056E0
1.122562147E1;-2.461366653E-1;3.755111694E-1;1.066431999E0
1.123509439E1;-5.651164055E-2;7.616806030E-2;9.764952660E-1
1.124456730E1;-5.905625820E-1;3.403768539E-1;2.089251041E0
1.125404027E1;2.257955074E-1;3.323297501E-1;1.552085638E0
1.126351319E1;1.787938118E0;4.173307419E-1;4.596822262E-1
1.127298611E1;2.659048080E0;9.513406754E-1;2.968072891E-3
1.128245902E1;2.938048363E0;1.338767052E0;4.061412811E-2
1.129193194E1;3.024564505E0;1.188908577E0;-2.311995029E-1
1.130140486E1;2.128688812E0;1.853615761E0;-6.938030720E-1
1.131087777E1;2.444242954E0;2.496668816E0;-8.484976292E-1
1.132035069E1;2.863076210E0;2.930318832E0;-2.264897823E-1
1.132982361E1;3.850845814E0;2.909625053E0;-3.938055038E-2
1.133929658E1;5.673413277E0;2.499827385E0;-5.187315941E-1
1.134876949E1;7.159759521E0;2.322076797E0;-1.366888285E0
1.135824241E1;8.006671906E0;2.583705902E0;-1.543683767E0
1.136771532E1;7.665452003E0;3.106019974E0;-1.575268269E0
1.137718824E1;6.755628586E0;3.478229523E0;-1.505264282E0
1.138666116E1;5.742594719E0;3.833158016E0;-1.036868095E0
1.139613408E1;4.835684776E0;4.235479832E0;-2.021193504E-1
1.140560699E1;4.807999134E0;4.578476429E0;7.639342546E-1
1.141507991E1;5.829477310E0;4.742917538E0;1.499922514E0
1.142455288E1;7.238771915E0;5.297829628E0;1.821338296E0
1.143402579E1;8.606513977E0;6.992864609E0;-2.290670872E-1
1.144349871E1;1.107867336E1;9.627423286E0;4.920960665E-1
1.145297163E1;1.191836452E1;1.276126289E1;4.046802521E0
1.146244454E1;1.095060062E1;1.449780178E1;3.926550627E0
1.147191746E1;1.184680557E1;1.471837807E1;2.869516134E0
1.148139038E1;1.312541199E1;1.466106033E1;1.201617599E0
1.149086329E1;1.343820572E1;1.326113605E1;-5.020987034E0
1.150033626E1;1.400826645E1;9.690580368E0;-1.116829681E1
1.150980918E1;1.505360603E1;5.699216843E0;-1.154268265E1
1.151928210E1;1.384918213E1;2.007744789E0;-1.189222240E1
1.152875501E1;9.655207634E0;-2.044482231E-1;-1.157928276E1
1.153822793E1;1.919058323E0;7.960376740E-1;-1.419285965E1
1.154770085E1;-6.980586052E0;4.327447891E0;-1.187254143E1
1.155717376E1;-8.141722679E0;7.421729088E0;-1.732577562E0
1.156664668E1;-8.602666855E0;9.551313400E0;4.626444817E0
1.157611960E1;-1.036500931E1;9.236370087E0;6.798931122E0
1.158559251E1;-1.068502045E1;5.833989143E0;4.849915981E0
1.159506548E1;-8.376627922E0;1.694479465E0;3.026587248E0
1.160453840E1;-4.985553265E0;-6.707315445E-1;2.976466656E0
1.161401132E1;-2.764835358E0;-9.249720573E-1;2.295475960E0
1.162348423E1;-2.111318111E0;-4.072012901E-1;8.811147213E-1
1.163295715E1;-2.147708416E0;-4.247541428E-1;-9.225220680E-1
1.164243007E1;-2.278741360E0;-1.010779858E0;-2.096353769E0
1.165190298E1;-2.045354366E0;-2.091632128E0;-2.186413527E0
1.166137590E1;-1.358637333E0;-3.365283966E0;-1.320077896E0
1.167084887E1;-5.750184059E-1;-4.564836502E0;-1.847890615E-1
1.168032178E1;3.960747719E-1;-5.758546352E0;5.800521374E-2
1.168979470E1;1.351297379E0;-6.709392071E0;-5.872868299E-1
1.169926762E1;2.111675739E0;-7.426198483E0;-1.639224768E0
1.170874053E1;2.838692904E0;-7.772119522E0;-1.777445912E0
1.171821345E1;3.028989077E0;-7.571758270E0;-1.398726821E0
1.172768637E1;2.048477888E0;-6.851459503E0;-1.316243172E0
1.173715928E1;3.170647621E-1;-6.211111069E0;-1.731948018E0
1.174663220E1;-1.838406563E0;-5.688429832E0;-1.751368999E0
1.175610512E1;-4.091957092E0;-5.173004150E0;-8.067214489E-1
1.176557809E1;-6.119825363E0;-4.469236374E0;5.417264700E-1
1.177505100E1;-7.861711502E0;-3.657938004E0;1.423991680E0
1.178452392E1;-9.131886482E0;-2.790756226E0;2.032457113E0
1.179399684E1;-1.020165539E1;-2.238695145E0;1.626820803E0
1.180346975E1;-1.022529030E1;-2.605676174E0;8.543849587E-1
1.181294267E1;-9.621191978E0;-3.120357513E0;2.983318567E-1
1.182241559E1;-9.050525665E0;-2.786417484E0;-5.071808100E-1
1.183188850E1;-8.400478363E0;-1.485991478E0;-1.222208381E0
1.184136147E1;-7.696101189E0;3.721885681E-1;-1.927272081E0
1.185083439E1;-6.956399441E0;2.054130554E0;-2.967289448E0
1.186030730E1;-5.012726784E0;2.224285126E0;-4.561654568E0
1.186978022E1;-1.425394893E0;1.511793137E0;-3.497263432E0
1.187925314E1;-1.300137043E0;2.704581261E0;-2.438965321E0
1.188872605E1;-4.287805557E0;3.590770721E0;-5.976379871E0
1.189819897E1;-4.221501827E0;2.330388069E0;-6.312608719E0
1.190767189E1;-3.589146614E0;-6.058692932E-2;-3.497357845E0
1.191714480E1;-1.693394661E0;-3.404876709E0;2.412654161E-1
1.192661772E1;-1.889775395E0;-5.110529900E0;4.229375124E-1
1.193609064E1;-4.830428123E0;-3.817295551E0;-2.958156586E0
1.194556361E1;-5.003805637E0;-1.812296391E0;-4.816457748E0
1.195503652E1;-4.439598083E0;-6.798963547E-1;-4.927268982E0
1.196450944E1;-5.398679256E0;-4.893665314E-1;-4.736928940E0
1.197398236E1;-6.365235329E0;1.635547638E0;-1.699139714E0
1.198345527E1;-2.955299854E0;1.007355404E1;1.122894287E1
1.199292819E1;4.180780411E0;1.817181778E1;1.364838028E1
1.200240111E1;1.701075077E0;1.546187019E1;-8.564877510E-2
1.201187402E1;3.699872017E0;-7.993602753E-1;-8.737454414E0
1.202134694E1;2.595339775E0;-1.197371006E1;-9.087988853E0
1.203081991E1;-4.425290108E0;-9.557016373E0;-6.145339489E0
1.204029282E1;-1.289658165E1;-2.911333084E0;-8.112232208E0
1.204976574E1;-1.437739754E1;-3.086729050E-1;-5.496136665E0
1.205923866E1;-1.083389378E1;-7.046556473E-1;1.870585561E0
1.206871158E1;-1.038195324E1;-9.710845947E-1;6.334635735E0
1.207818449E1;-1.691884422E1;1.646207809E0;5.043163300E0
1.208765741E1;-2.497048378E1;4.343518257E0;4.799678802E0
1.209713032E1;-2.105036163E1;2.753623009E0;3.623153687E0
1.210660324E1;-1.180878830E1;4.123592377E-1;9.952253103E-1
1.211607616E1;-4.647812843E0;1.906757355E-1;-5.828084946E-1
1.212554913E1;9.431822300E-1;5.706996918E-1;-2.820996046E0
1.213502204E1;2.926713467E0;1.430844307E0;-6.137013435E0
1.214449496E1;3.032051802E0;1.939818382E0;-5.728864193E0
1.215396788E1;2.088525057E0;1.380016327E0;-4.041395187E0
1.216344079E1;1.370254993E0;1.569852829E-1;-2.724097729E0
1.217291371E1;3.364894390E-1;-4.293699265E-1;-2.182977676E0
1.218238663E1;-8.308459520E-1;-4.435443878E-2;-1.605274439E0
1.219185954E1;-1.310495853E0;3.340187073E-1;-1.025579929E0
1.220133246E1;-1.366586208E0;3.377828598E-1;-2.590415478E-1
1.221080543E1;-1.733427644E0;1.071538925E-1;3.526258469E-1
1.222027835E1;-2.067111015E0;6.849288940E-2;6.439850330E-1
1.222975126E1;-1.362212062E0;9.966373444E-2;1.004165769E0
1.223922418E1;2.333285809E-1;3.861713409E-2;8.227546215E-1
1.224869710E1;1.570864797E0;-1.415061951E-2;1.018185616E-1
1.225817001E1;2.352218628E0;1.751718521E-1;-6.428005695E-1
1.226764293E1;3.078323603E0;1.596031189E-1;-7.522819042E-1
1.227711585E1;3.322017193E0;-1.949310303E-2;-7.613551617E-1
1.228658876E1;3.145802021E0;-2.272233963E-1;-3.791491985E-1
1.229606168E1;2.655856609E0;-2.792415619E-1;1.656692028E-1
1.230553460E1;1.893422842E0;-2.100725174E-1;1.282410383E0
1.231500756E1;1.621142149E0;-1.051511765E-1;1.394456267E0
1.232448048E1;2.187129498E0;-6.028242111E-1;3.255698681E-1
1.233395340E1;1.956553102E0;-2.080259323E-1;7.860770226E-1
1.234342632E1;2.462765932E0;-7.482242584E-2;3.031172752E-1
1.235289923E1;3.066331387E0;3.992099762E-1;-7.358717918E-2
1.236237215E1;3.169553518E0;5.767288208E-1;-4.977457523E-1
1.237184506E1;2.486468554E0;7.186317444E-2;8.804154396E-1
1.238131798E1;8.351318836E-1;2.481470108E-1;7.549972534E-1
1.239079090E1;1.381235480E0;8.054761887E-1;-4.949712753E-1
1.240026382E1;9.118404388E-1;2.768999100E0;-2.552008629E-1
1.240973678E1;7.406075001E-1;4.117855072E0;2.799441814E-1
1.241920970E1;1.877861857E0;3.513398170E0;1.929879189E-1
1.242868262E1;3.494788885E0;2.767972946E0;-1.988022327E-1
1.243815553E1;5.037640095E0;2.671333313E0;-7.551913261E-1
1.244762845E1;6.415525436E0;3.088785172E0;-7.053916454E-1
1.245710137E1;6.901000023E0;3.264859200E0;-5.903971195E-1
1.246657428E1;6.850760460E0;3.005247116E0;-8.405439854E-1
1.247604720E1;6.571472645E0;2.959215164E0;-1.206512213E0
1.248552012E1;6.313111305E0;3.251284122E0;-1.198019981E0
1.249499309E1;6.414119244E0;3.500370026E0;-9.723777771E-1
1.250446600E1;6.914899349E0;3.941426754E0;-3.350682259E-1
1.251393892E1;7.501885891E0;5.163170815E0;-1.118807316E0
1.252341184E1;9.567173004E0;7.099853992E0;-1.377187967E0
1.253288475E1;1.138521862E1;9.892506599E0;2.856003523E0
1.254235767E1;1.056392097E1;1.196430492E1;5.321319103E0
1.255183059E1;8.602554321E0;1.242903328E1;4.202928543E0
1.256130350E1;8.560667038E0;1.252210426E1;4.144233227E0
1.257077642E1;9.538112640E0;1.334348392E1;4.039333820E0
1.258024934E1;1.024773312E1;1.367666817E1;3.919482231E-1
1.258972230E1;1.102439976E1;1.145246410E1;-6.256555080E0
1.259919522E1;1.258670425E1;7.560451508E0;-9.428051949E0
1.260866814E1;1.274573040E1;3.336462021E0;-1.119047356E1
1.261814105E1;9.828391075E0;2.136011124E-1;-1.047545147E1
1.262761397E1;4.475379944E0;5.863356590E-1;-1.065248966E1
1.263708689E1;-2.617027283E0;4.115326405E0;-8.836959839E0
1.264655980E1;-5.937500000E0;7.880014420E0;-1.463295937E0
1.265603272E1;-6.773403168E0;9.645597458E0;3.929471016E0
1.266550569E1;-8.430715561E0;8.789348602E0;5.244784355E0
1.267497861E1;-8.765324593E0;5.864169598E0;4.442421913E0
1.268445152E1;-6.491727352E0;1.971174717E0;3.199144125E0
1.269392444E1;-3.653607845E0;-3.590970039E-1;2.848715305E0
1.270339736E1;-1.812189579E0;-6.199789047E-1;2.445426464E0
1.271287027E1;-1.292499542E0;6.014776230E-2;1.204249978E0
1.272234319E1;-1.447475433E0;5.540361404E-1;-3.556902409E-1
1.273181611E1;-1.419093132E0;2.888870239E-2;-1.719579697E0
1.274128908E1;-1.036375523E0;-1.245751858E0;-2.174660921E0
1.275076199E1;-4.762940407E-1;-2.747069120E0;-1.878377676E0
1.276023491E1;3.616566658E-1;-4.036071301E0;-9.298437834E-1
1.276970783E1;1.170372009E0;-4.923030853E0;1.698764563E-1
1.277918074E1;1.555039883E0;-5.317710876E0;8.744788170E-2
1.278865366E1;1.751822472E0;-5.392434120E0;-4.833801985E-1
1.279812658E1;1.882895947E0;-5.526280403E0;-4.007397890E-1
1.280759949E1;1.287712812E0;-5.880902290E0;-5.976809263E-1
1.281707241E1;1.728692055E-1;-6.152260780E0;-1.115509152E0
1.282654538E1;-1.458619118E0;-6.004246712E0;-1.157127857E0
1.283601829E1;-3.537776709E0;-5.361614227E0;-6.176495552E-1
1.284549121E1;-5.715425491E0;-4.369198322E0;7.303321362E-1
1.285496413E1;-7.558476448E0;-3.386785984E0;2.311562538E0
1.286443704E1;-8.414339066E0;-2.755397320E0;2.966746807E0
1.287390996E1;-8.381712914E0;-2.766093254E0;2.281059742E0
1.288338288E1;-8.483571053E0;-2.790231228E0;1.923066378E-1
1.289285585E1;-8.302674294E0;-2.716134071E0;-1.012535214E0
1.290232876E1;-7.546385288E0;-2.661898136E0;-3.528906107E-1
1.291180168E1;-6.974080086E0;-2.356678009E0;-9.215950966E-3
1.292127460E1;-6.362036228E0;-1.508935452E0;-8.760969639E-1
1.293074751E1;-5.903762817E0;-2.932348251E-1;-1.548168540E0
1.294022043E1;-5.463297844E0;8.517036438E-1;-2.134877205E0
1.294969335E1;-4.259433746E0;1.313771248E0;-4.261051178E0
1.295916626E1;-1.537862659E0;1.257151604E0;-4.897970200E0
1.296863923E1;-4.519565105E-1;1.999150276E0;-4.330657959E0
1.297811215E1;-3.039953709E0;4.002113342E0;-7.093583107E0
1.298758507E1;-2.868551493E0;3.162423134E0;-5.700357437E0
1.299705798E1;-3.330523491E0;9.641456604E-1;-8.522907495E-1
1.300653090E1;-3.935860634E0;-2.619192600E0;1.104600668E0
1.301600382E1;-4.699299335E0;-5.055232048E0;6.862635016E-1
1.302547678E1;-6.072080612E0;-5.159639359E0;-1.476449370E0
1.303494970E1;-6.722663879E0;-3.314668655E0;-3.350152016E0
1.304442262E1;-6.015170097E0;-1.501705647E0;-3.645107031E0
1.305389553E1;-5.424484253E0;-8.703861237E-1;-3.072891235E0
1.306336845E1;-6.127468109E0;-1.324116230E0;-3.425537348E0
1.307284137E1;-7.147794247E0;-1.354566097E0;-3.516872883E0
1.308231428E1;-5.326688766E0;4.381816864E0;4.086241722E0
1.309178720E1;3.893766642E0;1.652984047E1;1.918046951E1
1.310126012E1;4.112553120E0;2.153984451E1;3.089791775E0
1.311073309E1;1.067639112E0;1.052742290E1;-8.043338776E0
1.312020600E1;4.507712364E0;-9.833437920E0;-1.091682720E1
1.312967892E1;1.396347046E0;-1.331101322E1;-6.028292656E0
1.313915184E1;-8.506690979E0;-6.033651352E0;-5.687260628E0
1.314862475E1;-1.625992584E1;-5.764036179E-1;-7.656299114E0
1.315809767E1;-1.270383835E1;-1.266282082E0;-1.048819304E0
1.316757059E1;-7.543432713E0;-4.007931232E0;6.354407310E0
1.317704355E1;-1.054785538E1;-2.257100105E0;4.484424591E0
1.318651647E1;-2.109330177E1;3.902782440E0;3.182477713E0
1.319598939E1;-2.462564087E1;5.689472198E0;4.021310806E0
1.320546230E1;-1.518893623E1;2.608566284E0;2.607146740E0
1.321493522E1;-5.638093948E0;7.135324478E-1;-3.145775795E-1
1.322440814E1;7.981440425E-1;4.574079514E-1;-3.080268383E0
1.323388105E1;3.203590155E0;9.202060699E-1;-5.361690998E0
1.324335402E1;3.590111256E0;1.128355980E0;-4.649136543E0
1.325282694E1;2.843801022E0;7.457885742E-1;-3.970912457E0
1.326229986E1;1.746097088E0;3.136253357E-2;-3.468477011E0
1.327177277E1;1.988546848E-1;-3.845882416E-1;-2.729617357E0
1.328124569E1;-1.407033920E0;-2.613515854E-1;-1.133146286E0
1.329071861E1;-2.425691128E0;2.356700897E-1;6.815743446E-2
1.330019158E1;-2.556976080E0;4.507617950E-1;5.828301907E-1
1.330966449E1;-2.160830975E0;2.505168915E-1;1.285466075E0
1.331913741E1;-1.643011570E0;4.101257324E-1;1.502795219E0
1.332861033E1;1.699784994E-1;2.698202133E-1;7.501717806E-1
1.333808324E1;2.191268921E0;-2.346897125E-2;-1.974155903E-1
1.334755616E1;3.164220810E0;-1.116666794E-1;-9.582860470E-1
1.335702908E1;3.453024864E0;-1.889839172E-1;-1.057945728E0
1.336650204E1;3.416797161E0;-1.838979721E-1;-9.457488060E-1
1.337597496E1;2.942988634E0;-1.297159195E-1;-9.944920540E-1
1.338544788E1;1.992369294E0;-1.095180511E-1;-9.817147255E-2
1.339492079E1;7.672228813E-1;-1.804676056E-1;1.411364079E0
1.340439371E1;-3.045735359E-1;-1.965293884E-1;1.890676618E0
1.341386663E1;1.347844601E-1;-3.546113968E-1;1.361964345E0
1.342333960E1;-1.389605999E-1;3.184738159E-1;1.879130960E0
1.343281251E1;-9.736704826E-2;7.879114151E-1;1.429450512E0
1.344228543E1;7.833719254E-1;5.205993652E-1;5.118768215E-1
1.345175835E1;9.951543808E-1;7.398347855E-1;-1.347405910E-1
1.346123126E1;1.047013044E0;8.165292740E-1;-4.948191643E-1
1.347070418E1;9.325726032E-1;5.805473328E-1;1.053802729E0
1.348017715E1;6.666946411E-2;5.861244202E-1;3.169876099E0
1.348965007E1;2.846825123E-1;2.223186493E-1;2.059603214E0
1.349912298E1;1.695623517E0;8.741598129E-1;3.270554543E-1
1.350859590E1;2.155651569E0;2.964814186E0;2.360928059E-1
1.351806882E1;2.387235880E0;4.243691444E0;-6.974024773E-1
1.352754173E1;3.593846560E0;4.174973488E0;-1.328975201E0
1.353701470E1;4.092479229E0;3.709167480E0;-1.660610914E0
1.354648762E1;4.737167358E0;3.345290184E0;-1.297492504E0
1.355596053E1;5.610996246E0;3.166573524E0;-1.116894007E0
1.356543345E1;6.062304497E0;3.127557278E0;-1.337978601E0
1.357490637E1;6.332617760E0;3.463013649E0;-1.181073427E0
1.358437928E1;6.017325878E0;4.154827595E0;-9.554769993E-1
1.359385225E1;5.727183342E0;4.652845383E0;-2.740571499E-1
1.360332517E1;5.450037956E0;4.889361858E0;5.246980190E-1
1.361279809E1;5.574989319E0;5.064939976E0;1.531215668E0
1.362227100E1;6.102009773E0;5.793183804E0;2.391639233E0
1.363174392E1;7.025840282E0;7.514565945E0;9.034415483E-1
1.364121684E1;9.725238800E0;1.048881817E1;2.552816153E0
1.365068980E1;1.068085098E1;1.374292183E1;5.044974327E0
1.366016272E1;9.567545891E0;1.444309235E1;3.635946274E0
1.366963564E1;9.961587906E0;1.311148167E1;2.118089199E0
1.367910855E1;1.165034771E1;1.210908318E1;7.504329681E-1
1.368858147E1;1.320257759E1;1.058017731E1;-4.384747982E0
1.369805444E1;1.461642838E1;7.568092823E0;-1.028715134E1
1.370752736E1;1.514879036E1;4.458645344E0;-1.200927734E1
1.371700027E1;1.357363605E1;1.760625362E0;-1.055049133E1
1.372647319E1;9.239222527E0;1.014238358E0;-9.807908058E0
1.373594611E1;1.823009491E0;3.098915577E0;-1.107313538E1
1.374541902E1;-5.258614540E0;6.595335007E0;-7.519659042E0
1.375489199E1;-7.454061508E0;8.777627945E0;1.985733509E-1
1.376436491E1;-8.497125626E0;9.066003799E0;5.249568939E0
1.377383783E1;-1.047069550E1;7.904416084E0;6.595041275E0
1.378331074E1;-1.049435997E1;4.953272343E0;5.830857754E0
1.379278366E1;-8.074401855E0;1.679408550E0;4.921793461E0
1.380225663E1;-5.459327698E0;-9.123086929E-2;3.882001638E0
1.381172954E1;-3.906570435E0;-5.231885910E-1;2.741201878E0
1.382120246E1;-3.116360188E0;-2.765288353E-1;1.275786161E0
1.383067538E1;-2.807750702E0;-2.594723701E-1;2.164785862E-1
1.384014829E1;-2.364211559E0;-8.275923729E-1;-6.374120712E-3
1.384962126E1;-1.525749683E0;-2.061407566E0;-1.491613388E-1
1.385909418E1;-5.928850174E-2;-3.828193188E0;-8.639855385E-1
1.386856710E1;2.375068665E0;-5.735194206E0;-1.166182876E0
1.387804001E1;4.970375538E0;-6.904902935E0;-1.258548856E0
1.388751293E1;6.131849766E0;-6.767159462E0;-1.064729810E0
1.389698585E1;5.381467342E0;-5.814546585E0;-7.291297913E-1
1.390645882E1;3.424842834E0;-4.808369637E0;-6.887707710E-1
1.391593173E1;1.442465305E0;-4.156329155E0;-4.523996115E-1
1.392540465E1;-3.968296051E-1;-3.740915298E0;2.546393871E-1
1.393487756E1;-2.461509228E0;-3.210641861E0;1.403520942E0
1.394435048E1;-4.998640537E0;-2.239230633E0;2.636286259E0
1.395382345E1;-7.820323944E0;-8.677339554E-1;3.039788961E0
1.396329637E1;-9.244962692E0;-4.419889450E-1;2.965181112E0
1.397276928E1;-8.678638458E0;-1.768042088E0;2.488264322E0
1.398224220E1;-7.248318195E0;-3.561429024E0;9.409502745E-1
1.399171512E1;-5.797091484E0;-4.590891838E0;9.458148479E-2
1.400118809E1;-5.230942726E0;-4.291486263E0;3.743140697E-1
1.401066100E1;-5.480772018E0;-3.205201149E0;3.301866055E-1
1.402013392E1;-6.414125443E0;-1.672193527E0;1.636159420E-1
1.402960684E1;-7.424417019E0;1.677303314E-1;-4.259104729E-1
1.403907975E1;-7.702309608E0;2.205502510E0;-9.475678205E-1
1.404855272E1;-7.450267792E0;3.699965477E0;-1.397855520E0
1.405802564E1;-5.581539154E0;3.231612206E0;-1.131125450E0
1.406749855E1;-2.828946352E0;1.699173927E0;-1.307837605E0
1.407697147E1;-8.821182251E-1;4.059715271E-1;-1.531695962E0
1.408644439E1;-5.345685482E-1;-3.461265564E-1;-3.454481125E0
1.409591736E1;-1.937405825E0;-7.712650299E-2;-6.473831177E0
1.410539027E1;-3.148343563E0;8.657455444E-3;-5.852997780E0
1.411486319E1;-4.719288826E0;-3.793315887E-1;-4.735020638E0
1.412433611E1;-6.116746426E0;-1.709652424E0;-3.342753410E0
1.413380902E1;-6.576024055E0;-2.817365646E0;-8.474092484E-1
1.414328199E1;-7.917217255E0;-3.543366909E0;5.369305611E-3
1.415275491E1;-9.248186111E0;-3.860455990E0;-9.486764073E-1
1.416222782E1;-9.192674637E0;-3.453585148E0;-2.097007990E0
1.417170074E1;-8.915649414E0;-2.576522350E0;-2.981899738E0
1.418117366E1;-8.791209221E0;-1.455820560E0;-3.949298382E0
1.419064663E1;-5.732751846E0;4.033585548E0;2.312337875E0
1.420011954E1;2.093953133E0;1.453289318E1;1.556407356E1
1.420959246E1;6.335984707E0;1.956335449E1;6.101764202E0
1.421906538E1;2.799645424E0;1.343673515E1;-5.764754295E0
1.422853829E1;5.015383720E0;-5.270603657E0;-8.825626373E0
1.423801126E1;2.547441483E0;-1.299809265E1;-9.087775230E0
1.424748418E1;-5.364359379E0;-9.518253326E0;-6.993960381E0
1.425695710E1;-1.417013550E1;-2.448945045E0;-5.391260147E0
1.426643001E1;-1.292208862E1;-3.893232346E-1;5.612012148E-1
1.427590298E1;-7.542737007E0;-2.084611416E0;3.866878033E0
1.428537590E1;-8.592680931E0;-1.611159801E0;2.043304682E0
1.429484882E1;-1.688580894E1;2.720180511E0;1.357936859E-2
1.430432173E1;-2.160853195E1;5.017382622E0;3.656703234E-1
1.431379465E1;-1.476938152E1;2.676349640E0;1.639780045E0
1.432326756E1;-6.255037785E0;4.533061981E-1;1.620507717E0
1.433274053E1;-1.705742717E0;1.413497925E-1;-6.284534931E-1
1.434221345E1;-3.857047558E-1;8.949756622E-1;-3.483754158E0
1.435168637E1;9.600973129E-1;1.313506126E0;-3.315642834E0
1.436115928E1;1.367063642E0;1.295099258E0;-2.402777433E0
1.437063225E1;4.846053720E-1;9.915914536E-1;-2.205132484E0
1.438010517E1;-9.009300470E-1;6.882905960E-1;-2.355858803E0
1.438957809E1;-1.504850626E0;2.850561142E-1;-1.857872486E0
1.439905100E1;-1.392823815E0;6.186485291E-3;-1.147559404E0
1.440852392E1;-1.734961271E0;1.370220184E-1;-1.205323219E0
1.441799689E1;-1.831899285E0;4.140319824E-1;-7.724370956E-1
1.442746980E1;-1.055384994E0;2.839708328E-1;-8.429980278E-1
1.443694272E1;4.906893969E-1;4.494285583E-2;-8.252997398E-1
1.444641564E1;1.806172132E0;-1.540956497E-1;-1.703815460E-1
1.445588861E1;2.318183422E0;-2.676897049E-1;2.249825001E-1
1.446536152E1;2.740559340E0;-3.912982941E-1;-5.069804192E-2
1.447483444E1;3.334149361E0;-1.952829361E-1;-6.871891022E-1
1.448430736E1;3.038926601E0;3.098649979E-1;-6.989622116E-1
1.449378027E1;2.073052168E0;4.614448547E-1;-8.320069313E-2
1.450325324E1;1.134101152E0;4.531860352E-2;7.207732201E-1
1.451272616E1;5.337611437E-1;-6.404247284E-1;1.150182724E0
1.452219908E1;9.847855568E-2;-1.033009052E0;9.636727571E-1
1.453167199E1;-1.422426701E-1;-4.965534210E-1;6.440482140E-1
1.454114491E1;5.212423801E-1;2.761487961E-1;1.579594612E-1
1.455061788E1;1.182031870E0;8.146343231E-1;-3.189625740E-1
1.456009079E1;1.332544684E0;1.286269188E0;-3.595817089E-1
1.456956371E1;1.150640965E0;1.194211006E0;5.715429783E-1
1.457903663E1;8.930375576E-1;6.884775162E-1;8.825628757E-1
1.458850960E1;6.756138802E-1;8.066282272E-1;1.456895590E0
1.459798251E1;1.255506277E0;1.405584335E0;9.221721888E-1
1.460745543E1;2.280344248E0;2.245661736E0;1.045090199E0
1.461692835E1;3.166719675E0;2.877333641E0;5.021805763E-1
1.462640132E1;5.073046207E0;2.374836922E0;-2.404170036E-1
1.463587423E1;6.291135788E0;2.324110985E0;-8.752994537E-1
1.464534715E1;7.021189690E0;2.666348457E0;-1.996193886E0
1.465482007E1;7.226403236E0;3.053576469E0;-1.774664640E0
1.466429298E1;6.737425804E0;3.084005356E0;-9.822912216E-1
1.467376590E1;5.800678253E0;2.696131706E0;-3.312039375E-2
1.468323887E1;5.733155727E0;2.356596947E0;-4.474647045E-1
1.469271178E1;6.512097359E0;2.590802193E0;-1.285412550E0
1.470218470E1;7.270169258E0;3.423047543E0;-1.207761765E0
1.471165767E1;7.552865982E0;4.240655899E0;-4.431858063E-1
1.472113059E1;8.001798630E0;4.698299408E0;2.635307312E-1
1.473060350E1;8.746669769E0;5.685062408E0;-1.102760553E0
1.474007642E1;1.073910904E1;7.760741234E0;3.164277077E-1
1.474954934E1;1.081829262E1;1.093405151E1;4.354836941E0
1.475902230E1;8.195228577E0;1.300902557E1;3.975435734E0
1.476849522E1;7.518828392E0;1.306388378E1;2.960607052E0
1.477796814E1;8.768790245E0;1.343150711E1;3.802260160E0
1.478744105E1;1.007597923E1;1.376398659E1;1.968014956E0
1.479691402E1;1.092438030E1;1.188650131E1;-6.001698017E0
1.480638694E1;1.220588589E1;8.073577881E0;-1.088269329E1
1.481585986E1;1.286287308E1;3.843522072E0;-1.139935207E1
1.482533277E1;1.098694420E1;3.513689041E-1;-1.068061829E1
1.483480569E1;5.484130859E0;2.662978172E-1;-1.146372604E1
1.484427866E1;-1.773998260E0;3.583488464E0;-1.024939919E1
1.485375158E1;-5.535898209E0;7.262293339E0;-3.153126955E0
1.486322449E1;-5.778903961E0;8.939270973E0;2.435137510E0
1.487269741E1;-6.334373951E0;8.244533539E0;3.961572409E0
1.488217038E1;-6.623487949E0;5.609225750E0;2.740263700E0
1.489164329E1;-5.902235985E0;2.167373180E0;8.952288628E-1
1.490111621E1;-4.288062096E0;-2.788114548E-1;7.374756336E-1
1.491058913E1;-2.630184650E0;-9.196200371E-1;1.360453606E0
1.492006210E1;-1.997516632E0;-8.780670166E-2;1.336111426E0
1.492953501E1;-2.648102760E0;5.921282768E-1;5.148832798E-1
1.493900793E1;-3.490144253E0;3.229432106E-1;-8.578681946E-1
1.494848085E1;-3.132159233E0;-7.655854225E-1;-1.007621050E0
1.495795376E1;-1.538843155E0;-2.575979710E0;-3.057203293E-1
1.496742673E1;2.656402588E-1;-4.361907959E0;-2.702746391E-1
1.497689965E1;1.640136242E0;-5.331045628E0;-4.438976049E-1
1.498637257E1;2.281193256E0;-5.317046165E0;-5.205812454E-1
1.499584548E1;2.255252838E0;-4.726003647E0;-6.323280334E-1
1.500531845E1;1.645008564E0;-4.082020760E0;-6.551278830E-1
1.501479137E1;1.180284500E0;-3.801434517E0;-4.439113140E-1
1.502426428E1;6.912865639E-1;-3.947989464E0;-3.241944313E-1
1.503373720E1;-4.336285591E-1;-4.238901138E0;-1.715081930E-1
1.504321017E1;-2.271054745E0;-4.317834377E0;2.432082891E-1
1.505268309E1;-4.229485512E0;-4.053296089E0;9.596073627E-1
1.506215600E1;-6.044642448E0;-3.528353691E0;1.198419452E0
1.507162892E1;-7.322683811E0;-3.010706902E0;6.916025877E-1
1.508110189E1;-7.625335217E0;-2.583066463E0;2.340191603E-1
1.509057480E1;-7.230211735E0;-2.558004856E0;-3.589539528E-1
1.510004772E1;-6.945878983E0;-2.992920399E0;-3.219529390E-1
1.510952064E1;-7.742631912E0;-3.122695923E0;-1.045881510E-1
1.511899355E1;-8.744655609E0;-2.882071018E0;3.888857365E-2
1.512846652E1;-9.472290993E0;-2.120346069E0;-4.305835962E-1
1.513793944E1;-9.059815407E0;-1.394857407E0;-5.457834005E-1
1.514741236E1;-7.439848900E0;-1.127363205E0;-1.363691568E0
1.515688533E1;-5.265257359E0;-1.286385536E0;-1.816402435E0
1.516635824E1;-5.951710701E0;8.735570908E-1;-3.245725870E0
1.517583116E1;-5.030553818E0;1.501306534E0;-2.501744747E0
1.518530408E1;-2.438452959E0;6.249542236E-1;-5.809340000E0
1.519477699E1;-3.372007608E0;3.374967575E-1;-7.383103848E0
1.520424996E1;-6.727884769E0;1.103906631E-1;-5.633859158E0
1.521372288E1;-7.319206715E0;-1.350987434E0;-2.010852814E0
1.522319579E1;-5.772848606E0;-3.352176666E0;1.339667916E0
1.523266871E1;-4.313379288E0;-4.664796352E0;-2.392479181E-1
1.524214168E1;-2.388341904E0;-4.061120510E0;-2.906287909E0
1.525161460E1;-1.919523001E0;-1.987700939E0;-4.428340912E0
1.526108751E1;-2.273684025E0;-6.520795822E-1;-4.792616844E0
1.527056043E1;-2.609261513E0;-7.010898590E-1;-4.239933491E0
1.528003340E1;-1.788414121E0;1.967437744E0;7.719647884E-2
1.528950632E1;2.941002131E0;1.297625923E1;1.381160164E1
1.529897923E1;8.408853531E0;2.419281769E1;9.116657257E0
1.530845215E1;5.569643974E0;1.820513916E1;-2.268161297E0
1.531792512E1;3.850773811E0;-3.320607662E0;-7.865007401E0
1.532739803E1;1.281971931E0;-1.444061089E1;-8.326786995E0
1.533687095E1;-7.214844704E0;-1.162176418E1;-5.965595722E0
1.534634387E1;-1.697987556E1;-5.209970474E0;-7.824647903E0
1.535581684E1;-1.826163292E1;-2.349212646E0;-4.530013084E0
1.536528975E1;-1.348562336E1;-1.924047470E0;4.519622803E0
1.537476267E1;-1.097690201E1;-8.101253510E-1;8.731946945E0
1.538423559E1;-1.676762581E1;2.941692352E0;5.239048958E0
1.539370855E1;-2.214381218E1;4.968346596E0;2.674450874E0
1.540318147E1;-1.669083786E1;2.501446724E0;4.069291353E-1
1.541265439E1;-8.679262161E0;6.830425262E-1;-1.214812279E0
1.542212730E1;-1.814921021E0;6.241102219E-1;-3.039772272E0
1.543160027E1;3.079362631E0;1.442743301E0;-5.827407360E0
1.544107319E1;4.891487122E0;1.735506058E0;-6.797230721E0
1.545054611E1;4.062013626E0;1.166269302E0;-5.098083496E0
1.546001902E1;1.577585459E0;3.122549057E-1;-3.304084063E0
1.546949199E1;-5.433750153E-1;-3.984193802E-1;-1.855968714E0
1.547896491E1;-2.592650414E0;-4.207983017E-1;-5.580682755E-1
1.548843782E1;-4.553950310E0;2.165327072E-1;9.116139412E-1
1.549791074E1;-5.054463387E0;6.560945511E-1;1.722241163E0
1.550738371E1;-4.006666183E0;7.093276978E-1;1.752929926E0
1.551685663E1;-3.022641659E0;6.233644485E-1;1.095565915E0
1.552632954E1;-1.921618581E0;2.914934158E-1;3.875360489E-1
1.553580246E1;2.363944054E-2;-8.210659027E-2;-4.269170761E-1
1.554527543E1;2.245155096E0;-3.247537613E-1;-2.824873924E-1
1.555474835E1;3.600804329E0;-2.486982346E-1;-1.013536215E0
1.556422126E1;4.464073181E0;-1.837978363E-1;-1.518854618E0
1.557369418E1;4.369814873E0;-3.655815125E-2;-1.561380148E0
1.558316715E1;3.659654140E0;4.711627960E-2;-1.201178312E0
1.559264007E1;2.683200121E0;-6.398773193E-2;-2.123892307E-1
1.560211298E1;1.197289228E0;-1.205463409E-1;3.768777847E-1
1.561158595E1;4.167979956E-1;-2.338991165E-1;1.185545683E0
1.562105887E1;-7.424545288E-2;1.790523529E-2;1.946601868E0
1.563053178E1;-5.725979805E-2;-8.998870850E-2;7.060313225E-1
1.564000470E1;1.624298096E0;-6.344938278E-1;2.739439011E-1
1.564947767E1;2.248430252E0;-3.422222137E-1;-4.841294289E-1
1.565895059E1;2.105159283E0;3.322420120E-1;-8.608169556E-1
1.566842350E1;1.664465427E0;8.651571274E-1;-2.726984024E-2
1.567789642E1;1.080569267E0;7.279701233E-1;1.166743994E0
1.568736939E1;5.578880310E-1;2.307977676E-1;1.076807976E0
1.569684230E1;8.921916485E-1;3.782510757E-1;-1.574437618E-1
1.570631522E1;1.683306456E0;1.698364258E0;-2.870931625E-1
1.571578814E1;2.287760735E0;3.184215546E0;-5.936288834E-1
1.572526111E1;3.605087519E0;2.917676926E0;-1.279748678E0
1.573473402E1;4.685774803E0;2.081591606E0;-1.204210043E0
1.574420694E1;5.090985298E0;1.997152328E0;-8.214921951E-1
1.575367991E1;5.475035667E0;2.148772240E0;-6.180958748E-1
1.576315282E1;5.684971809E0;2.647047043E0;-1.570200920E-2
1.577262574E1;5.346190453E0;3.289998055E0;3.854765892E-1
1.578209866E1;5.045600414E0;3.447100639E0;3.909535408E-1
1.579157163E1;4.940158367E0;3.272413254E0;-4.324936867E-2
1.580104454E1;5.437757969E0;3.362942696E0;6.901979446E-3
1.581051746E1;6.338828564E0;3.564481735E0;-6.543612480E-2
1.581999038E1;7.055199623E0;3.839348316E0;2.033047676E-1
1.582946335E1;7.113534451E0;4.658675194E0;-9.283018112E-2
1.583893626E1;7.956364632E0;6.231695652E0;-2.122936010E0
1.584840918E1;1.000944233E1;8.816505432E0;1.357824922E0
1.585788210E1;9.327941895E0;1.170083046E1;4.819281101E0
1.586735507E1;7.692981243E0;1.238344669E1;3.696415186E0
1.587682798E1;8.023264885E0;1.213646317E1;2.766903162E0
1.588630090E1;9.564205170E0;1.331000328E1;2.694205523E0
1.589577387E1;1.099421787E1;1.462640953E1;1.141340017E0
1.590524678E1;1.252722263E1;1.345777321E1;-3.841096401E0
1.591471970E1;1.386758614E1;9.531522751E0;-9.597297668E0
1.592419262E1;1.397592831E1;5.453476429E0;-1.056990433E1
1.593366559E1;1.173411560E1;1.610617638E0;-1.017952347E1
1.594313850E1;7.658046722E0;-2.491989136E-1;-1.008177280E1
1.595261142E1;8.235964775E-1;1.574861526E0;-1.175636673E1
1.596208439E1;-5.075317383E0;5.089872360E0;-7.753372192E0
1.597155730E1;-5.610230923E0;7.507387161E0;6.058430672E-2
1.598103022E1;-6.257353306E0;8.183229446E0;3.837836981E0
1.599050314E1;-7.992354393E0;7.079395771E0;3.878244877E0
1.599997611E1;-8.208063126E0;4.671746731E0;2.625375748E0
1.600944902E1;-5.953801632E0;1.861575603E0;2.149433851E0
1.601892194E1;-3.684497833E0;3.369760513E-1;2.155149698E0
1.602839491E1;-2.410595894E0;-7.092952728E-2;1.921869755E0
1.603786782E1;-1.956604004E0;-2.832908630E-1;6.020750999E-1
1.604734074E1;-2.019202232E0;-6.965637207E-1;-7.838106155E-1
1.605681366E1;-2.013664246E0;-1.812159061E0;-1.700261354E0
1.606628663E1;-1.452326298E0;-3.284902096E0;-1.722265244E0
1.607575954E1;-1.670641899E-1;-4.510299683E0;-1.111149311E0
1.608523246E1;1.346423626E0;-5.341598511E0;-6.006196737E-1
1.609470538E1;2.370219231E0;-5.875856400E0;-7.779947519E-1
1.610417835E1;2.748839617E0;-6.124352455E0;-1.132212400E0
1.611365126E1;2.434593439E0;-6.227272034E0;-1.356462955E0
1.612312418E1;1.410813808E0;-6.095926285E0;-1.259309530E0
1.613259715E1;3.587913513E-2;-5.787727356E0;-1.084401965E0
1.614207007E1;-1.492694378E0;-5.286492348E0;-5.667225122E-1
1.615154298E1;-3.331015110E0;-4.644033909E0;2.966485023E-1
1.616101590E1;-5.516427040E0;-3.994678974E0;9.324110150E-1
1.617048887E1;-7.277359009E0;-3.622532845E0;1.182679057E0
1.617996178E1;-7.848028183E0;-3.662205696E0;1.403221011E0
1.618943470E1;-7.605300903E0;-3.805499077E0;1.375551224E0
1.619890767E1;-7.219293118E0;-3.952178955E0;6.437047720E-1
1.620838059E1;-7.106284142E0;-4.024622917E0;1.154956818E-1
1.621785350E1;-7.667001724E0;-3.441034794E0;-1.832309961E-1
1.622732642E1;-8.168541908E0;-2.515689850E0;-3.733885288E-1
1.623679939E1;-7.527722359E0;-1.733082294E0;-1.271318197E-1
1.624627230E1;-6.766448021E0;-7.465744019E-1;-3.189705610E-1
1.625574522E1;-5.956404209E0;-1.921167374E-1;-8.557877541E-1
1.626521819E1;-5.265967846E0;-9.010314941E-2;-1.379180312E0
1.627469111E1;-5.421895027E0;8.803863525E-1;-1.732333064E0
1.628416402E1;-4.692644119E0;1.032721519E0;-3.562384605E0
1.629363694E1;-2.705981016E0;1.223729134E0;-2.936527729E0
1.630310991E1;-2.282851696E0;1.517325401E0;-6.691114426E0
1.631258282E1;-2.178590059E0;1.534926414E0;-7.999211788E0
1.632205574E1;-3.418353796E0;1.582805634E0;-3.056786299E0
1.633152866E1;-3.531767845E0;-2.187719345E-1;2.929613113E0
1.634100163E1;-4.204082012E0;-2.933684349E0;2.880276203E0
1.635047454E1;-4.165537834E0;-4.118492603E0;1.016974449E-3
1.635994746E1;-3.570553303E0;-2.932899952E0;-2.676794529E0
1.636942043E1;-3.283604622E0;-1.271133423E0;-4.369124889E0
1.637889335E1;-3.533095598E0;-5.949916840E-1;-4.278336048E0
1.638836626E1;-4.300239563E0;-9.886875153E-1;-3.295429707E0
1.639783923E1;-4.603256226E0;-7.846307755E-1;-2.422667027E0
1.640731215E1;-1.543237925E0;5.698204994E0;5.254219055E0
1.641678507E1;5.906852245E0;1.973637390E1;1.496434593E1
1.642625798E1;6.439136505E0;2.396569824E1;-1.359987378E0
1.643573095E1;5.366399288E0;7.484475136E0;-8.885105133E0
1.644520387E1;4.716409683E0;-1.171176529E1;-8.452039719E0
1.645467678E1;-9.400406480E-1;-1.535512543E1;-6.089789391E0
1.646414975E1;-1.251119614E1;-9.131389618E0;-5.858543396E0
1.647362267E1;-1.898484612E1;-4.597478390E0;-6.739244938E0
1.648309559E1;-1.398470020E1;-4.477666855E0;-1.379374862E0
1.649256850E1;-7.074924946E0;-3.773730755E0;6.971129417E0
1.650204147E1;-8.959655762E0;1.633920670E0;6.735097885E0
1.651151439E1;-1.990900421E1;8.607097626E0;2.153800726E0
1.652098730E1;-2.235820961E1;7.711409569E0;3.446466446E0
1.653046022E1;-1.285670853E1;2.004532814E0;3.136420012E0
1.653993319E1;-4.712559700E0;-9.261503220E-1;1.255972743E0
1.654940611E1;-2.456034422E-1;-1.045942307E0;-1.133579016E0
1.655887902E1;2.113578081E0;-1.114959717E-1;-4.580438614E0
1.656835199E1;3.259593248E0;7.555761337E-1;-5.905260563E0
1.657782491E1;2.099377632E0;1.380380630E0;-5.216387749E0
1.658729782E1;-2.549701929E-1;1.253569603E0;-3.542818308E0
1.659677074E1;-2.062558174E0;3.748674393E-1;-1.917644501E0
1.660624371E1;-3.356794119E0;-6.523704529E-2;-1.324210167E-1
1.661571663E1;-4.327417374E0;4.276409149E-1;9.958034754E-1
1.662518954E1;-4.094564438E0;9.301528931E-1;1.573397756E0
1.663466251E1;-2.962906361E0;7.352285385E-1;1.171566606E0
1.664413543E1;-2.201021194E0;5.430431366E-1;8.162362576E-1
1.665360835E1;-1.042036772E0;3.400850296E-1;3.993668556E-1
1.666308132E1;7.883423567E-1;5.262184143E-2;5.781364441E-2
1.667255423E1;1.982057333E0;1.233863831E-2;-6.217813492E-1
1.668202715E1;2.932937622E0;-9.651184082E-4;-1.213251114E0
1.669150006E1;3.553582430E0;7.547283173E-2;-1.212970495E0
1.670097303E1;3.326579094E0;2.630786896E-1;-8.447215557E-1
1.671044595E1;3.012104273E0;1.534223557E-1;-2.065513134E-1
1.671991887E1;2.413852692E0;-1.497230530E-1;4.051344395E-1
1.672939178E1;1.679799557E0;-3.065052032E-1;8.134698868E-1
1.673886475E1;1.363874435E0;-8.049964905E-2;1.137225747E0
1.674833767E1;1.819915533E0;1.260652542E-1;6.787517071E-1
1.675781059E1;1.892470241E0;5.081262589E-1;8.061408997E-1
1.676728355E1;2.441640854E0;3.540372849E-1;2.843317986E-1
1.677675647E1;2.430156946E0;3.962526321E-1;7.286858559E-2
1.678622939E1;2.638400793E0;2.648439407E-1;-3.722214699E-2
1.679570230E1;1.919384718E0;4.350023270E-1;7.637281418E-1
1.680517527E1;1.199169755E0;4.262218475E-1;1.432986021E0
1.681464819E1;1.281371117E0;1.465988159E-2;1.843114972E0
1.682412111E1;9.751415253E-1;1.701145172E-1;5.776479244E-1
1.683359408E1;1.531646371E0;7.585697174E-1;-8.273780346E-1
1.684306699E1;1.474761248E0;2.401396751E0;-7.907319069E-1
1.685253991E1;1.620505452E0;3.514179230E0;-3.388891220E-1
1.686201288E1;2.251293182E0;3.304518700E0;-7.130880356E-1
1.687148579E1;3.202708483E0;2.761755943E0;-8.269443512E-1
1.688095871E1;3.981657028E0;2.501265526E0;-6.635398865E-1
1.689043163E1;4.823629379E0;2.448624611E0;-3.755197525E-1
1.689990460E1;5.650651455E0;2.630419731E0;-4.143857956E-1
1.690937751E1;6.389199734E0;2.916370392E0;-5.001888275E-1
1.691885043E1;6.703561306E0;3.355154991E0;-4.633405209E-1
1.692832340E1;6.910710335E0;3.599665642E0;-2.804396152E-1
1.693779632E1;7.596363068E0;3.632119656E0;2.276787758E-1
1.694726923E1;8.671201706E0;3.944314003E0;9.128011465E-1
1.695674215E1;9.720138550E0;5.141349792E0;2.394061089E-1
1.696621512E1;1.163294983E1;7.385188103E0;-4.740767479E-1
1.697568803E1;1.277615166E1;1.063603401E1;2.607117414E0
1.698516095E1;1.044321632E1;1.321297646E1;3.971600056E0
1.699463392E1;8.050077438E0;1.349626732E1;3.027146339E0
1.700410684E1;7.831156731E0;1.323178387E1;2.740329266E0
1.701357975E1;8.299213409E0;1.385827160E1;2.394259930E0
1.702305267E1;9.472734451E0;1.319399643E1;-1.852576733E0
1.703252564E1;1.065983295E1;1.043090057E1;-8.072772980E0
1.704199855E1;1.163400078E1;6.894253254E0;-1.096949482E1
1.705147147E1;1.100621319E1;3.347470284E0;-1.001449585E1
1.706094444E1;7.783544540E0;1.279851913E0;-9.283246994E0
1.707041736E1;1.303933620E0;2.259403706E0;-1.026175213E1
1.707989027E1;-4.637515545E0;5.395198345E0;-6.251286507E0
1.708936319E1;-6.022171497E0;7.756725311E0;4.854424000E-1
1.709883616E1;-7.045533657E0;8.351822853E0;3.868183374E0
1.710830908E1;-8.414976120E0;6.999767780E0;4.080232620E0
1.711778199E1;-8.475177765E0;4.435539722E0;2.770113945E0
1.712725496E1;-6.550016403E0;1.652817249E0;2.010544062E0
1.713672788E1;-4.342267036E0;-1.990413666E-2;2.451733828E0
1.714620079E1;-2.899624348E0;-3.222250938E-1;2.670077801E0
1.715567376E1;-2.435130596E0;-7.537221909E-2;1.719436765E0
1.716514668E1;-2.330055714E0;-2.086272240E-1;6.209318638E-1
1.717461960E1;-1.917874336E0;-9.188723564E-1;3.501474857E-1
1.718409251E1;-1.119900703E0;-2.180140018E0;4.616791010E-1
1.719356548E1;9.227418900E-2;-3.926044226E0;1.615194082E-1
1.720303840E1;1.543986797E0;-5.580607414E0;-5.547711849E-1
1.721251132E1;2.867112875E0;-6.431432247E0;-1.134103179E0
1.722198428E1;3.254015446E0;-6.145447254E0;-1.406508088E0
1.723145720E1;2.414723396E0;-5.200507164E0;-1.471887827E0
1.724093012E1;1.249731064E0;-4.345065117E0;-1.404878616E0
1.725040309E1;3.453402519E-1;-4.095754147E0;-7.118589878E-1
1.725987600E1;-8.988265991E-1;-4.203279018E0;-1.613377333E-1
1.726934892E1;-2.571942329E0;-4.443909168E0;2.347445488E-1
1.727882184E1;-4.480826378E0;-4.324670315E0;1.164992690E0
1.728829480E1;-6.523915291E0;-3.688176155E0;2.094962120E0
1.729776772E1;-8.201283455E0;-2.864859581E0;2.050253630E0
1.730724064E1;-8.543302536E0;-2.495822906E0;1.684979796E0
1.731671361E1;-7.628057480E0;-3.227275848E0;9.789509177E-1
1.732618652E1;-6.750084400E0;-4.249542236E0;4.039753675E-1
1.733565944E1;-6.498997211E0;-4.768850327E0;-1.604351997E-1
1.734513236E1;-7.281971931E0;-4.133664131E0;-9.390873909E-1
1.735460532E1;-8.582764626E0;-2.405950069E0;-1.505548239E0
1.736407824E1;-8.644210815E0;-6.300497055E-1;-1.277787805E0
1.737355116E1;-7.285856247E0;2.296476364E-1;-9.187651873E-1
1.738302408E1;-6.398557186E0;5.889072418E-1;-1.717776895E0
1.739249704E1;-4.950556755E0;-7.125692368E-1;-3.000543118E0
1.740196996E1;-3.574864864E0;-4.657583237E-1;-1.241600871E0
1.741144288E1;-5.092825890E0;1.148436546E0;-3.381619930E0
1.742091585E1;-5.221271515E0;2.662878036E0;-6.445248604E0
1.743038876E1;-2.576557875E0;1.941933632E0;-5.908316612E0
1.743986168E1;-2.413083553E0;3.733453751E-1;-5.057081699E0
1.744933465E1;-2.383612633E0;-1.715538979E0;-2.686774731E0
1.745880756E1;-1.942645073E0;-3.046093941E0;4.666328430E-2
1.746828048E1;-2.927301884E0;-3.107208729E0;-7.879875898E-1
1.747775340E1;-3.849809647E0;-2.415788174E0;-2.747174263E0
1.748722637E1;-4.450116158E0;-1.837174416E0;-3.309483528E0
1.749669928E1;-5.833258629E0;-1.461575508E0;-2.748972178E0
1.750617220E1;-7.663012505E0;-1.111243248E0;-2.810177326E0
1.751564512E1;-8.335254669E0;1.508654594E0;-1.357883930E0
1.752511809E1;-3.374647617E0;1.011417103E1;1.099324799E1
1.753459100E1;2.141827106E0;1.872866058E1;1.241873169E1
1.754406392E1;5.142010450E-1;1.499055195E1;-1.046723843E0
1.755353689E1;2.653455496E0;-4.205179214E-1;-7.520901680E0
1.756300980E1;1.666593909E0;-1.118872738E1;-8.147987366E0
1.757248272E1;-4.440368652E0;-1.004468536E1;-5.700934410E0
1.758195564E1;-1.003673458E1;-3.329834461E0;-5.128566742E0
1.759142861E1;-1.031571484E1;9.131832123E-1;-1.902318001E-1
1.760090152E1;-7.908133030E0;1.784727097E0;3.793200016E0
1.761037444E1;-7.673227310E0;8.810625076E-1;2.502567768E0
1.761984741E1;-1.192263317E1;7.581834793E-1;1.264433384E0
1.762932033E1;-1.576369667E1;1.332221985E0;7.721424103E-1
1.763879324E1;-1.363314342E1;5.716285706E-1;-8.125984669E-1
1.764826616E1;-7.864992142E0;5.999660492E-2;2.415013313E-2
1.765773913E1;-1.237372637E0;4.360198975E-1;1.604897976E-1
1.766721204E1;1.227519155E0;1.360539436E0;-3.203329802E0
1.767668496E1;1.705178976E0;1.464372635E0;-4.313674927E0
1.768615793E1;1.342952013E0;1.088445663E0;-3.765475750E0
1.769563085E1;4.519920945E-1;2.951154709E-1;-2.523530006E0
1.770510376E1;-1.081178784E0;-2.927246094E-1;-1.699118137E0
1.771457668E1;-2.661301136E0;-2.073945999E-1;-3.555421829E-1
1.772404965E1;-3.648375988E0;2.285737991E-1;1.228676081E0
1.773352256E1;-3.667572737E0;4.381370544E-1;1.654280424E0
1.774299548E1;-3.042131424E0;4.490776062E-1;1.255937338E0
1.775246845E1;-2.183509350E0;6.136474609E-1;5.195461512E-1
1.776194137E1;-9.116100073E-1;4.320507050E-1;-3.312005997E-1
1.777141428E1;7.150790095E-1;1.785583496E-1;-9.803597927E-1
1.778088720E1;2.371351719E0;-3.019199371E-1;-1.368326187E0
1.779036017E1;3.731185913E0;-7.991657257E-1;-1.380967617E0
1.779983309E1;3.920574427E0;-5.838747025E-1;-1.196851254E0
1.780930600E1;3.537537098E0;-1.405105591E-1;-6.983613968E-1
1.781877897E1;2.508557081E0;3.175783157E-1;-2.194046974E-2
1.782825189E1;1.263175726E0;2.844333649E-1;8.148162365E-1
1.783772480E1;5.202269554E-2;4.794120789E-2;1.805888653E0
1.784719772E1;-9.775936604E-1;-1.626091003E-1;1.791503787E0
1.785667069E1;-9.564878941E-1;-2.371940613E-1;1.643599749E0
1.786614361E1;-2.996392250E-1;-6.355285645E-3;1.146223068E0
1.787561652E1;6.401796341E-1;3.475513458E-1;5.659217834E-1
1.788508949E1;1.659701347E0;6.302375793E-1;-1.218128204E-1
1.789456241E1;2.432417154E0;5.359849930E-1;-7.463371754E-1
1.790403533E1;3.063896656E0;-7.777118683E-2;-4.047520161E-1
1.791350824E1;2.825249672E0;-6.146631241E-1;1.456375718E0
1.792298121E1;1.683785081E0;-1.689081192E-1;6.480212212E-1
1.793245413E1;2.122488737E0;1.164564133E0;-4.045982361E-1
1.794192704E1;1.476917982E0;3.330145836E0;-9.038779736E-1
1.795140001E1;6.899898052E-1;4.067090034E0;-3.460485935E-1
1.796087293E1;8.183701038E-1;3.394754410E0;-8.197402954E-2
1.797034585E1;1.734858871E0;2.763026237E0;-1.974833012E-1
1.797981882E1;3.600588560E0;2.661652565E0;-3.931388855E-1
1.798929173E1;5.710822582E0;3.081830025E0;-8.227243423E-1
1.799876465E1;7.673510551E0;3.137257576E0;-1.481631279E0
1.800823756E1;8.442356110E0;3.161762238E0;-1.298048496E0
1.801771053E1;7.695361137E0;3.416536331E0;-5.812189579E-1
1.802718345E1;6.415756226E0;3.480987549E0;-2.635834217E-1
1.803665637E1;5.396849632E0;3.608559608E0;2.989742756E-1
1.804612928E1;4.602247238E0;3.986284256E0;1.360662818E0
1.805560225E1;4.445670605E0;4.950558662E0;8.174777031E-2
1.806507517E1;7.227247238E0;6.673390865E0;-4.142062664E-1
1.807454809E1;1.036135483E1;9.401646614E0;3.169568777E0
1.808402105E1;1.138487053E1;1.151558399E1;4.871172905E0
1.809349397E1;1.128833675E1;1.181749916E1;3.451439619E0
1.810296689E1;1.129798698E1;1.172060966E1;2.434650421E0
1.811243980E1;1.188680458E1;1.295778084E1;2.581583738E0
1.812191277E1;1.204281235E1;1.458009052E1;1.882134676E-1
1.813138569E1;1.244268990E1;1.357339287E1;-5.808310509E0
1.814085861E1;1.325814915E1;9.931421280E0;-8.803949356E0
1.815033158E1;1.334097099E1;5.664589882E0;-8.722688675E0
1.815980449E1;1.070580196E1;1.760344505E0;-9.557153702E0
1.816927741E1;6.012270451E0;1.030044556E-1;-1.014782715E1
1.817875033E1;-1.224788666E0;2.337687969E0;-1.051047897E1
1.818822329E1;-5.949319363E0;5.723031998E0;-4.983774185E0
1.819769621E1;-6.359887600E0;8.183876038E0;2.171061993E0
1.820716913E1;-6.916683674E0;8.840793610E0;5.353819847E0
1.821664210E1;-7.315199375E0;7.103013992E0;5.038249493E0
1.822611501E1;-6.852695942E0;3.698497772E0;3.009598970E0
1.823558793E1;-5.346014977E0;4.544477463E-1;1.588289738E0
1.824506090E1;-3.716606140E0;-1.113568306E0;1.779350042E0
1.825453382E1;-2.719607353E0;-1.138867855E0;1.840396166E0
1.826400673E1;-2.737399101E0;-6.228098869E-1;1.123450518E0
1.827347965E1;-2.977092743E0;-6.103200912E-1;3.109476566E-1
1.828295262E1;-2.502747536E0;-1.496752262E0;3.136913776E-1
1.829242553E1;-1.636795998E0;-2.817052364E0;1.003803372E0
1.830189845E1;-8.523702621E-1;-4.284140587E0;1.463381767E0
1.831137137E1;1.943731308E-1;-5.446761131E0;1.253147364E0
1.832084434E1;1.616072178E0;-6.091524601E0;9.187026620E-1
1.833031725E1;2.741951466E0;-6.268899441E0;4.227131605E-1
1.833979017E1;2.949942827E0;-6.120528698E0;4.081487656E-3
1.834926314E1;2.266089678E0;-5.776514053E0;-3.133902550E-1
1.835873605E1;8.712253571E-1;-5.318235397E0;-2.710491419E-1
1.836820897E1;-9.625234604E-1;-4.860889435E0;2.655673027E-2
1.837768189E1;-2.889466286E0;-4.398911953E0;6.372079849E-1
1.838715486E1;-4.533999443E0;-3.988578796E0;1.604103088E0
1.839662777E1;-5.881980896E0;-3.456365108E0;2.748795509E0
1.840610069E1;-6.789712906E0;-3.039457798E0;3.135506392E0
1.841557366E1;-7.268654346E0;-2.796227932E0;2.500570536E0
1.842504658E1;-7.291860104E0;-2.931208134E0;1.514045477E0
1.843451949E1;-7.390884876E0;-2.838853359E0;9.479388595E-1
1.844399246E1;-7.556921959E0;-2.421758175E0;8.445361853E-1
1.845346538E1;-7.468003273E0;-1.878582478E0;1.926510334E-1
1.846293829E1;-6.794855118E0;-1.099798203E0;-3.484511375E-1
1.847241121E1;-5.956582069E0;1.035223007E-1;-5.690586567E-1
1.848188418E1;-5.568044662E0;1.237292290E0;-1.779209256E0
1.849135710E1;-5.178763390E0;1.811085701E0;-2.485928059E0
1.850083001E1;-3.871231556E0;1.581173897E0;-2.915518999E0
1.851030298E1;-2.615841866E0;1.085901260E0;-2.457684278E0
1.851977590E1;-3.598218441E0;6.272611618E-1;-3.752796650E0
1.852924882E1;-6.520323753E0;1.671802521E0;-3.937053204E0
1.853872173E1;-7.451303482E0;2.726809502E0;-9.951837063E-1
1.854819470E1;-5.005308628E0;4.401922226E-1;3.926998377E-1
1.855766762E1;-2.702818871E0;-2.228005409E0;1.382950544E-1
1.856714053E1;-2.687917233E0;-3.604567051E0;-1.251230001E0
1.857661350E1;-3.599069834E0;-3.188024998E0;-2.873302698E0
1.858608642E1;-3.642425776E0;-1.981569767E0;-3.580207348E0
1.859555934E1;-3.563673258E0;-1.278450489E0;-3.899711370E0
1.860503225E1;-4.191854477E0;-1.240120411E0;-4.777620792E0
1.861450522E1;-4.771155357E0;1.396589279E-1;-3.728202343E0
1.862397814E1;-1.151503682E0;7.522752762E0;6.318361282E0
1.863345105E1;5.196236610E0;1.722807693E1;1.224511242E1
1.864292402E1;2.440421581E0;1.705686951E1;-6.922824383E-1
1.865239694E1;1.731412411E0;3.026874542E0;-7.906836510E0
1.866186986E1;1.269779921E0;-1.008279991E1;-1.066483212E1
1.867134282E1;-3.265567303E0;-1.150496101E1;-7.492008209E0
1.868081574E1;-1.115739346E1;-5.565109253E0;-4.839170456E0
1.869028866E1;-1.527868366E1;-1.326288223E0;-2.920928478E0
1.869976158E1;-1.284634495E1;-3.094310760E-1;2.945888996E0
1.870923454E1;-1.033752823E1;-7.927560806E-1;7.111432076E0
1.871870746E1;-1.252026939E1;3.303155899E-1;5.174716949E0
1.872818038E1;-1.880028343E1;3.477063179E0;2.795982838E0
1.873765335E1;-1.955005646E1;3.935631752E0;1.930060983E0
1.874712626E1;-1.286261654E1;1.749368668E0;6.966469288E-1
1.875659918E1;-5.189142227E0;5.568418503E-1;-1.736096621E0
1.876607215E1;1.401877642E0;3.430709839E-1;-3.541992903E0
1.877554507E1;3.922535658E0;9.175424576E-1;-5.281314373E0
1.878501798E1;3.983382702E0;1.204124451E0;-5.084857464E0
1.879449090E1;3.289287090E0;7.301645279E-1;-4.509198189E0
1.880396387E1;2.064452887E0;-1.141033173E-1;-3.527392149E0
1.881343678E1;2.131469250E-1;-6.026411057E-1;-2.248193979E0
1.882290970E1;-1.793602824E0;-4.205904007E-1;-4.413065910E-1
1.883238267E1;-2.944805622E0;5.513477325E-2;1.018126607E0
1.884185559E1;-3.198811054E0;5.370721817E-1;1.753844261E0
1.885132850E1;-3.043890953E0;9.391803741E-1;1.823559761E0
1.886080147E1;-2.603531837E0;1.065808296E0;1.488919139E0
1.887027439E1;-1.608657598E0;6.813249588E-1;1.028252721E0
1.887974730E1;-1.603072882E-1;3.566646576E-2;3.841605186E-1
1.888922022E1;1.451753378E0;-4.043359756E-1;3.149509430E-2
1.889869319E1;2.692094564E0;-6.190786362E-1;-1.527891159E-1
1.890816611E1;3.360810757E0;-4.135627747E-1;-5.163002014E-1
1.891763902E1;3.542129040E0;6.528759003E-2;-5.191781521E-1
1.892711199E1;3.453000546E0;4.487905502E-1;-6.581799984E-1
1.893658491E1;3.192272663E0;3.889760971E-1;-4.829709530E-1
1.894605782E1;2.725329876E0;-4.839801788E-2;-4.488205910E-2
1.895553074E1;2.076586723E0;-3.747596741E-1;-1.507966518E-1
1.896500371E1;1.812493324E0;-6.090612411E-1;1.256656647E-1
1.897447663E1;1.063741684E0;2.265071869E-2;7.613279819E-1
1.898394954E1;7.119159698E-1;1.744852066E-1;9.681760073E-1
1.899342251E1;5.001440048E-1;-8.958625793E-2;1.353809118E0
1.900289543E1;3.578960896E-1;-1.237735748E-1;1.342671514E0
1.901236835E1;7.613759041E-1;-1.365079880E-1;2.063352108E0
1.902184132E1;6.764602661E-1;2.131767273E-1;6.474514008E-1
1.903131423E1;1.472804666E0;1.235360146E0;-8.091013432E-1
1.904078715E1;1.542042613E0;3.011079788E0;-1.368907213E0
1.905026012E1;5.700085163E-1;4.162711143E0;-7.378253937E-1
1.905973303E1;3.684322834E-1;3.582837105E0;6.239087582E-1
1.906920595E1;5.059511662E-1;2.503436089E0;7.447283268E-1
1.907867887E1;1.916481137E0;1.472934723E0;1.207993031E-1
1.908815184E1;3.899450541E0;1.321386337E0;-4.436552525E-1
1.909762475E1;5.509387016E0;2.286748886E0;-8.568983078E-1
1.910709767E1;6.858864784E0;3.063805580E0;-1.106792212E0
1.911657064E1;7.204462051E0;3.427488327E0;-1.168166876E0
1.912604355E1;6.697525501E0;3.551221848E0;-1.237466812E0
1.913551647E1;6.104448318E0;3.680277824E0;-5.553326607E-1
1.914498944E1;5.505210876E0;3.847109795E0;5.986750126E-1
1.915446236E1;5.597625256E0;4.015563965E0;1.586202264E0
1.916393527E1;6.508583069E0;4.580209255E0;2.279075623E0
1.917340824E1;7.643627167E0;6.017443657E0;2.995223999E-1
1.918288116E1;1.016054153E1;8.240143776E0;6.064500809E-1
1.919235408E1;1.072318077E1;1.135568142E1;2.789408922E0
1.920182699E1;9.930994034E0;1.332712173E1;3.228250980E0
1.921129996E1;1.013667774E1;1.427173233E1;3.808743954E0
1.922077288E1;1.057447147E1;1.500268841E1;3.409986019E0
1.923024579E1;1.069403839E1;1.446556377E1;7.420454025E-1
1.923971876E1;1.073428345E1;1.173272705E1;-4.888716221E0
1.924919168E1;1.128455448E1;8.065164566E0;-9.342441559E0
1.925866460E1;1.196746445E1;4.317227840E0;-1.172750568E1
1.926813756E1;1.085375309E1;7.552714348E-1;-1.139444351E1
1.927761048E1;7.354224682E0;-1.115427971E0;-1.143694401E1
1.928708340E1;-3.878211975E-1;1.005993843E0;-1.245795727E1
1.929655637E1;-5.854635239E0;4.718952179E0;-6.716844559E0
1.930602928E1;-6.512677670E0;7.416876793E0;6.651127338E-1
1.931550220E1;-7.859394550E0;8.316635132E0;4.155726910E0
1.932497512E1;-9.486682892E0;6.978867531E0;4.440166950E0
1.933444809E1;-9.283233643E0;3.578567982E0;2.951425076E0
1.934392100E1;-6.859143257E0;2.448673248E-1;1.994079113E0
1.935339392E1;-3.919859409E0;-1.218796730E0;2.256039143E0
1.936286689E1;-2.162795544E0;-8.465628624E-1;1.488634825E0
1.937233980E1;-1.517353058E0;1.682558060E-1;-1.023454666E-1
1.938181272E1;-1.512068748E0;4.171190262E-1;-1.356896639E0
1.939128569E1;-1.522504330E0;-4.854726791E-1;-1.978029251E0
1.940075861E1;-1.131855965E0;-1.982606411E0;-1.442030668E0
1.941023152E1;-1.057772636E-1;-3.688766479E0;-3.460553885E-1
1.941970449E1;9.460072517E-1;-5.185320854E0;-5.774962902E-2
1.942917741E1;1.769781590E0;-6.141669273E0;-1.620314121E-1
1.943865032E1;2.169602871E0;-6.339485168E0;-4.415885210E-1
1.944812329E1;2.087812424E0;-6.098662376E0;-8.115668297E-1
1.945759621E1;1.682469130E0;-5.885073185E0;-6.576074362E-1
